Channel			  :,CH1
Frequency			  :,F=3.021MHz
Period 			  :,T=320.0ns
PK-PK				  :,Vpp=2.020V
Average			  :,V=50.47mV
Vertical pos		  :,0.00mV
Probe attenuation	  :,1X
Voltage per ADC value:,20.00mV
Time interval		  :,0.02uS

index,CH1_Voltage(mV)
0,260.00
1,420.00
2,640.00
3,840.00
4,980.00
5,1100.00
6,1080.00
7,980.00
8,840.00
9,640.00
10,440.00
11,280.00
12,180.00
13,160.00
14,240.00
15,400.00
16,600.00
17,800.00
18,980.00
19,1060.00
20,1080.00
21,1000.00
22,860.00
23,660.00
24,440.00
25,280.00
26,180.00
27,160.00
28,240.00
29,380.00
30,600.00
31,780.00
32,980.00
33,1080.00
34,1080.00
35,1020.00
36,880.00
37,660.00
38,460.00
39,300.00
40,180.00
41,160.00
42,220.00
43,360.00
44,560.00
45,760.00
46,940.00
47,1060.00
48,1080.00
49,1020.00
50,900.00
51,700.00
52,500.00
53,320.00
54,180.00
55,160.00
56,220.00
57,360.00
58,560.00
59,740.00
60,940.00
61,1040.00
62,1080.00
63,1040.00
64,920.00
65,720.00
66,500.00
67,320.00
68,200.00
69,160.00
70,200.00
71,320.00
72,520.00
73,740.00
74,920.00
75,1040.00
76,1100.00
77,1060.00
78,920.00
79,740.00
80,520.00
81,320.00
82,200.00
83,160.00
84,200.00
85,320.00
86,520.00
87,700.00
88,900.00
89,1020.00
90,1080.00
91,1040.00
92,940.00
93,740.00
94,540.00
95,340.00
96,200.00
97,140.00
98,180.00
99,320.00
100,480.00
101,700.00
102,900.00
103,1020.00
104,1100.00
105,1060.00
106,960.00
107,780.00
108,560.00
109,360.00
110,220.00
111,160.00
112,180.00
113,300.00
114,460.00
115,660.00
116,880.00
117,1020.00
118,1080.00
119,1060.00
120,960.00
121,780.00
122,580.00
123,400.00
124,240.00
125,160.00
126,180.00
127,300.00
128,460.00
129,660.00
130,860.00
131,1000.00
132,1080.00
133,1080.00
134,980.00
135,820.00
136,600.00
137,400.00
138,240.00
139,160.00
140,160.00
141,260.00
142,420.00
143,640.00
144,840.00
145,980.00
146,1080.00
147,1080.00
148,980.00
149,840.00
150,640.00
151,420.00
152,260.00
153,160.00
154,160.00
155,260.00
156,400.00
157,620.00
158,820.00
159,980.00
160,1080.00
161,1080.00
162,980.00
163,860.00
164,660.00
165,440.00
166,280.00
167,180.00
168,160.00
169,240.00
170,380.00
171,600.00
172,800.00
173,980.00
174,1080.00
175,1100.00
176,1000.00
177,860.00
178,660.00
179,460.00
180,300.00
181,180.00
182,160.00
183,220.00
184,360.00
185,580.00
186,780.00
187,960.00
188,1060.00
189,1080.00
190,1000.00
191,880.00
192,680.00
193,480.00
194,320.00
195,200.00
196,160.00
197,220.00
198,340.00
199,560.00
200,740.00
201,940.00
202,1040.00
203,1100.00
204,1040.00
205,900.00
206,700.00
207,500.00
208,320.00
209,200.00
210,160.00
211,200.00
212,320.00
213,520.00
214,740.00
215,940.00
216,1040.00
217,1100.00
218,1040.00
219,920.00
220,740.00
221,540.00
222,320.00
223,200.00
224,160.00
225,200.00
226,320.00
227,500.00
228,700.00
229,900.00
230,1020.00
231,1080.00
232,1040.00
233,940.00
234,740.00
235,540.00
236,340.00
237,220.00
238,160.00
239,200.00
240,320.00
241,500.00
242,700.00
243,900.00
244,1040.00
245,1100.00
246,1060.00
247,960.00
248,760.00
249,560.00
250,360.00
251,220.00
252,160.00
253,180.00
254,300.00
255,460.00
256,660.00
257,860.00
258,1000.00
259,1080.00
260,1060.00
261,980.00
262,780.00
263,580.00
264,380.00
265,240.00
266,160.00
267,180.00
268,280.00
269,440.00
270,660.00
271,860.00
272,1000.00
273,1080.00
274,1060.00
275,980.00
276,800.00
277,600.00
278,400.00
279,260.00
280,160.00
281,180.00
282,260.00
283,420.00
284,640.00
285,840.00
286,1000.00
287,1080.00
288,1080.00
289,980.00
290,820.00
291,620.00
292,420.00
293,260.00
294,160.00
295,160.00
296,260.00
297,420.00
298,620.00
299,820.00
300,980.00
301,1080.00
302,1080.00
303,980.00
304,840.00
305,640.00
306,420.00
307,280.00
308,180.00
309,160.00
310,240.00
311,380.00
312,600.00
313,800.00
314,980.00
315,1080.00
316,1080.00
317,1000.00
318,860.00
319,660.00
320,440.00
321,280.00
322,180.00
323,160.00
324,240.00
325,380.00
326,580.00
327,800.00
328,980.00
329,1080.00
330,1100.00
331,1020.00
332,880.00
333,700.00
334,560.00
335,440.00
336,380.00
337,340.00
338,320.00
339,280.00
340,240.00
341,200.00
342,180.00
343,240.00
344,340.00
345,520.00
346,720.00
347,920.00
348,1040.00
349,1040.00
350,960.00
351,720.00
352,440.00
353,160.00
354,-80.00
355,-220.00
356,-220.00
357,-100.00
358,140.00
359,420.00
360,720.00
361,960.00
362,1080.00
363,1080.00
364,960.00
365,720.00
366,440.00
367,160.00
368,-60.00
369,-200.00
370,-220.00
371,-100.00
372,120.00
373,400.00
374,680.00
375,940.00
376,1060.00
377,1080.00
378,980.00
379,760.00
380,480.00
381,180.00
382,-40.00
383,-200.00
384,-220.00
385,-100.00
386,100.00
387,380.00
388,660.00
389,920.00
390,1060.00
391,1080.00
392,980.00
393,760.00
394,500.00
395,220.00
396,-20.00
397,-200.00
398,-240.00
399,-140.00
400,60.00
401,340.00
402,640.00
403,900.00
404,1060.00
405,1100.00
406,1000.00
407,800.00
408,540.00
409,240.00
410,0.00
411,-180.00
412,-220.00
413,-140.00
414,40.00
415,320.00
416,620.00
417,880.00
418,1040.00
419,1100.00
420,1000.00
421,820.00
422,560.00
423,260.00
424,0.00
425,-180.00
426,-220.00
427,-140.00
428,40.00
429,320.00
430,600.00
431,860.00
432,1020.00
433,1100.00
434,1020.00
435,840.00
436,580.00
437,300.00
438,20.00
439,-160.00
440,-220.00
441,-160.00
442,0.00
443,280.00
444,560.00
445,840.00
446,1020.00
447,1100.00
448,1040.00
449,860.00
450,620.00
451,320.00
452,40.00
453,-140.00
454,-220.00
455,-180.00
456,0.00
457,260.00
458,540.00
459,820.00
460,1000.00
461,1100.00
462,1040.00
463,880.00
464,640.00
465,320.00
466,60.00
467,-120.00
468,-220.00
469,-180.00
470,-40.00
471,220.00
472,500.00
473,780.00
474,980.00
475,1100.00
476,1060.00
477,920.00
478,660.00
479,360.00
480,100.00
481,-100.00
482,-220.00
483,-200.00
484,-40.00
485,180.00
486,480.00
487,760.00
488,980.00
489,1080.00
490,1060.00
491,940.00
492,680.00
493,380.00
494,120.00
495,-80.00
496,-220.00
497,-200.00
498,-60.00
499,180.00
500,440.00
501,740.00
502,980.00
503,1080.00
504,1080.00
505,960.00
506,720.00
507,420.00
508,140.00
509,-80.00
510,-220.00
511,-220.00
512,-80.00
513,140.00
514,420.00
515,700.00
516,960.00
517,1080.00
518,1080.00
519,960.00
520,720.00
521,440.00
522,160.00
523,-60.00
524,-200.00
525,-220.00
526,-100.00
527,120.00
528,400.00
529,680.00
530,920.00
531,1060.00
532,1080.00
533,980.00
534,760.00
535,480.00
536,200.00
537,-40.00
538,-200.00
539,-240.00
540,-120.00
541,100.00
542,380.00
543,660.00
544,900.00
545,1060.00
546,1100.00
547,980.00
548,800.00
549,520.00
550,240.00
551,-20.00
552,-180.00
553,-240.00
554,-140.00
555,60.00
556,320.00
557,640.00
558,880.00
559,1040.00
560,1080.00
561,1000.00
562,800.00
563,540.00
564,260.00
565,0.00
566,-180.00
567,-240.00
568,-160.00
569,40.00
570,320.00
571,600.00
572,860.00
573,1040.00
574,1100.00
575,1020.00
576,840.00
577,580.00
578,280.00
579,0.00
580,-160.00
581,-220.00
582,-160.00
583,0.00
584,280.00
585,580.00
586,840.00
587,1020.00
588,1100.00
589,1040.00
590,860.00
591,600.00
592,300.00
593,20.00
594,-140.00
595,-220.00
596,-160.00
597,0.00
598,260.00
599,560.00
600,1080.00
601,1040.00
602,880.00
603,640.00
604,320.00
605,60.00
606,-140.00
607,-220.00
608,-200.00
609,-20.00
610,220.00
611,520.00
612,780.00
613,1000.00
614,1100.00
615,1060.00
616,920.00
617,660.00
618,360.00
619,80.00
620,-120.00
621,-220.00
622,-200.00
623,-40.00
624,200.00
625,500.00
626,760.00
627,980.00
628,1080.00
629,1060.00
630,920.00
631,660.00
632,380.00
633,100.00
634,-100.00
635,-220.00
636,-200.00
637,-40.00
638,180.00
639,460.00
640,740.00
641,980.00
642,1080.00
643,1080.00
644,960.00
645,700.00
646,420.00
647,140.00
648,-80.00
649,-220.00
650,-220.00
651,-80.00
652,140.00
653,420.00
654,720.00
655,960.00
656,1080.00
657,1080.00
658,960.00
659,720.00
660,440.00
661,160.00
662,-60.00
663,-200.00
664,-220.00
665,-80.00
666,120.00
667,400.00
668,680.00
669,940.00
670,1060.00
671,1080.00
672,980.00
673,760.00
674,460.00
675,180.00
676,-40.00
677,-200.00
678,-220.00
679,-120.00
680,80.00
681,360.00
682,660.00
683,900.00
684,1060.00
685,1100.00
686,980.00
687,780.00
688,500.00
689,220.00
690,-20.00
691,-180.00
692,-220.00
693,-120.00
694,60.00
695,320.00
696,640.00
697,880.00
698,1040.00
699,1080.00
700,1000.00
701,800.00
702,520.00
703,240.00
704,-20.00
705,-200.00
706,-240.00
707,-140.00
708,40.00
709,320.00
710,620.00
711,880.00
712,1040.00
713,1100.00
714,1020.00
715,820.00
716,560.00
717,280.00
718,0.00
719,-160.00
720,-240.00
721,-160.00
722,20.00
723,280.00
724,580.00
725,840.00
726,1020.00
727,1100.00
728,1020.00
729,860.00
730,600.00
731,300.00
732,20.00
733,-160.00
734,-240.00
735,-180.00
736,0.00
737,260.00
738,560.00
739,820.00
740,1000.00
741,1080.00
742,1040.00
743,880.00
744,640.00
745,320.00
746,60.00
747,-140.00
748,-220.00
749,-140.00
750,40.00
751,320.00
752,640.00
753,860.00
754,980.00
755,940.00
756,760.00
757,480.00
758,180.00
759,-80.00
760,-260.00
761,-300.00
762,-200.00
763,0.00
764,280.00
765,560.00
766,780.00
767,920.00
768,940.00
769,820.00
770,620.00
771,340.00
772,60.00
773,-140.00
774,-280.00
775,-300.00
776,-200.00
777,0.00
778,260.00
779,540.00
780,740.00
781,900.00
782,920.00
783,840.00
784,640.00
785,380.00
786,100.00
787,-120.00
788,-260.00
789,-320.00
790,-220.00
791,-20.00
792,220.00
793,500.00
794,740.00
795,900.00
796,940.00
797,860.00
798,660.00
799,400.00
800,120.00
801,-100.00
802,-260.00
803,-300.00
804,-220.00
805,-40.00
806,200.00
807,480.00
808,720.00
809,880.00
810,940.00
811,860.00
812,660.00
813,420.00
814,160.00
815,-80.00
816,-240.00
817,-300.00
818,-240.00
819,-60.00
820,180.00
821,440.00
822,680.00
823,860.00
824,920.00
825,860.00
826,700.00
827,460.00
828,200.00
829,-40.00
830,-220.00
831,-300.00
832,-240.00
833,-80.00
834,140.00
835,400.00
836,660.00
837,860.00
838,940.00
839,880.00
840,720.00
841,480.00
842,220.00
843,-20.00
844,-240.00
845,-320.00
846,-280.00
847,-100.00
848,120.00
849,380.00
850,660.00
851,840.00
852,940.00
853,900.00
854,740.00
855,520.00
856,240.00
857,-20.00
858,-220.00
859,-300.00
860,-280.00
861,-140.00
862,100.00
863,360.00
864,640.00
865,820.00
866,920.00
867,900.00
868,760.00
869,540.00
870,280.00
871,0.00
872,-180.00
873,-300.00
874,-280.00
875,-140.00
876,80.00
877,340.00
878,620.00
879,820.00
880,920.00
881,920.00
882,760.00
883,560.00
884,300.00
885,20.00
886,-180.00
887,-300.00
888,-300.00
889,-160.00
890,40.00
891,320.00
892,580.00
893,780.00
894,920.00
895,920.00
896,800.00
897,600.00
898,320.00
899,40.00
900,-160.00
901,-280.00
902,-300.00
903,-180.00
904,0.00
905,300.00
906,540.00
907,780.00
908,920.00
909,920.00
910,820.00
911,620.00
912,340.00
913,80.00
914,-140.00
915,-280.00
916,-300.00
917,-200.00
918,0.00
919,260.00
920,520.00
921,760.00
922,900.00
923,940.00
924,840.00
925,640.00
926,360.00
927,100.00
928,-120.00
929,-260.00
930,-300.00
931,-220.00
932,-20.00
933,240.00
934,500.00
935,720.00
936,900.00
937,940.00
938,840.00
939,660.00
940,400.00
941,120.00
942,-100.00
943,-260.00
944,-320.00
945,-240.00
946,-40.00
947,220.00
948,480.00
949,720.00
950,880.00
951,940.00
952,860.00
953,660.00
954,420.00
955,140.00
956,-80.00
957,-260.00
958,-320.00
959,-240.00
960,-60.00
961,180.00
962,460.00
963,700.00
964,880.00
965,940.00
966,860.00
967,680.00
968,440.00
969,180.00
970,-60.00
971,-240.00
972,-300.00
973,-240.00
974,-80.00
975,160.00
976,420.00
977,660.00
978,860.00
979,940.00
980,880.00
981,700.00
982,460.00
983,200.00
984,-40.00
985,-220.00
986,-300.00
987,-260.00
988,-100.00
989,120.00
990,380.00
991,660.00
992,840.00
993,940.00
994,900.00
995,740.00
996,520.00
997,240.00
998,-20.00
999,-220.00
1000,-320.00
1001,-280.00
1002,-120.00
1003,100.00
1004,360.00
1005,640.00
1006,820.00
1007,920.00
1008,900.00
1009,740.00
1010,520.00
1011,260.00
1012,0.00
1013,-200.00
1014,-300.00
1015,-280.00
1016,-140.00
1017,80.00
1018,340.00
1019,620.00
1020,820.00
1021,920.00
1022,920.00
1023,780.00
1024,560.00
1025,300.00
1026,0.00
1027,-180.00
1028,-300.00
1029,-300.00
1030,-160.00
1031,40.00
1032,320.00
1033,600.00
1034,800.00
1035,920.00
1036,920.00
1037,800.00
1038,580.00
1039,320.00
1040,40.00
1041,-160.00
1042,-280.00
1043,-280.00
1044,-180.00
1045,40.00
1046,300.00
1047,560.00
1048,780.00
1049,900.00
1050,920.00
1051,800.00
1052,600.00
1053,320.00
1054,60.00
1055,-160.00
1056,-300.00
1057,-300.00
1058,-200.00
1059,0.00
1060,260.00
1061,540.00
1062,760.00
1063,900.00
1064,920.00
1065,840.00
1066,640.00
1067,360.00
1068,100.00
1069,-120.00
1070,-280.00
1071,-300.00
1072,-220.00
1073,-20.00
1074,240.00
1075,500.00
1076,720.00
1077,900.00
1078,940.00
1079,840.00
1080,660.00
1081,380.00
1082,120.00
1083,-120.00
1084,-280.00
1085,-320.00
1086,-220.00
1087,-20.00
1088,220.00
1089,480.00
1090,720.00
1091,880.00
1092,940.00
1093,860.00
1094,660.00
1095,420.00
1096,140.00
1097,-80.00
1098,-260.00
1099,-300.00
1100,-240.00
1101,-60.00
1102,180.00
1103,440.00
1104,680.00
1105,860.00
1106,920.00
1107,880.00
1108,700.00
1109,460.00
1110,200.00
1111,-60.00
1112,-240.00
1113,-300.00
1114,-240.00
1115,-80.00
1116,140.00
1117,420.00
1118,660.00
1119,860.00
1120,920.00
1121,880.00
1122,720.00
1123,480.00
1124,200.00
1125,-40.00
1126,-240.00
1127,-320.00
1128,-280.00
1129,-100.00
1130,120.00
1131,380.00
1132,660.00
1133,860.00
1134,940.00
1135,900.00
1136,740.00
1137,500.00
1138,240.00
1139,-20.00
1140,-220.00
1141,-300.00
1142,-280.00
1143,-120.00
1144,100.00
1145,380.00
1146,640.00
1147,820.00
1148,920.00
1149,900.00
1150,740.00
1151,520.00
1152,260.00
1153,0.00
1154,-220.00
1155,-320.00
1156,-320.00
1157,-180.00
1158,60.00
1159,340.00
1160,620.00
1161,820.00
1162,940.00
1163,900.00
1164,720.00
1165,520.00
1166,320.00
1167,180.00
1168,120.00
1169,160.00
1170,240.00
1171,300.00
1172,300.00
1173,200.00
1174,40.00
1175,-140.00
1176,-300.00
1177,-340.00
1178,-300.00
1179,-120.00
1180,140.00
1181,400.00
1182,640.00
1183,780.00
1184,800.00
1185,660.00
1186,440.00
1187,140.00
1188,-120.00
1189,-340.00
1190,-460.00
1191,-480.00
1192,-340.00
1193,-140.00
1194,100.00
1195,380.00
1196,620.00
1197,740.00
1198,740.00
1199,640.00
1200,-100.00
1201,-320.00
1202,-440.00
1203,-460.00
1204,-360.00
1205,-160.00
1206,100.00
1207,360.00
1208,600.00
1209,720.00
1210,740.00
1211,660.00
1212,440.00
1213,200.00
1214,-80.00
1215,-320.00
1216,-440.00
1217,-480.00
1218,-380.00
1219,-180.00
1220,60.00
1221,340.00
1222,580.00
1223,720.00
1224,760.00
1225,680.00
1226,480.00
1227,220.00
1228,-40.00
1229,-280.00
1230,-420.00
1231,-460.00
1232,-380.00
1233,-220.00
1234,40.00
1235,320.00
1236,560.00
1237,700.00
1238,760.00
1239,660.00
1240,500.00
1241,260.00
1242,-20.00
1243,-280.00
1244,-440.00
1245,-480.00
1246,-400.00
1247,-220.00
1248,20.00
1249,300.00
1250,540.00
1251,700.00
1252,760.00
1253,700.00
1254,520.00
1255,280.00
1256,0.00
1257,-240.00
1258,-400.00
1259,-480.00
1260,-420.00
1261,-260.00
1262,0.00
1263,280.00
1264,520.00
1265,680.00
1266,760.00
1267,700.00
1268,540.00
1269,300.00
1270,20.00
1271,-220.00
1272,-400.00
1273,-480.00
1274,-420.00
1275,-280.00
1276,-20.00
1277,240.00
1278,500.00
1279,680.00
1280,760.00
1281,700.00
1282,560.00
1283,320.00
1284,40.00
1285,-200.00
1286,-380.00
1287,-480.00
1288,-440.00
1289,-300.00
1290,-60.00
1291,200.00
1292,460.00
1293,660.00
1294,760.00
1295,740.00
1296,600.00
1297,340.00
1298,80.00
1299,-180.00
1300,-360.00
1301,-460.00
1302,-440.00
1303,-320.00
1304,-80.00
1305,180.00
1306,440.00
1307,660.00
1308,740.00
1309,720.00
1310,600.00
1311,380.00
1312,100.00
1313,-140.00
1314,-340.00
1315,-460.00
1316,-460.00
1317,-340.00
1318,-100.00
1319,160.00
1320,420.00
1321,660.00
1322,760.00
1323,740.00
1324,640.00
1325,400.00
1326,140.00
1327,-140.00
1328,-340.00
1329,-460.00
1330,-460.00
1331,-340.00
1332,-140.00
1333,120.00
1334,380.00
1335,620.00
1336,740.00
1337,740.00
1338,640.00
1339,420.00
1340,160.00
1341,-100.00
1342,-320.00
1343,-460.00
1344,-460.00
1345,-340.00
1346,-160.00
1347,100.00
1348,380.00
1349,620.00
1350,740.00
1351,740.00
1352,660.00
1353,440.00
1354,180.00
1355,-80.00
1356,-320.00
1357,-440.00
1358,-480.00
1359,-380.00
1360,-180.00
1361,80.00
1362,340.00
1363,580.00
1364,720.00
1365,760.00
1366,660.00
1367,460.00
1368,200.00
1369,-60.00
1370,-300.00
1371,-440.00
1372,-480.00
1373,-380.00
1374,-200.00
1375,60.00
1376,320.00
1377,580.00
1378,720.00
1379,760.00
1380,660.00
1381,480.00
1382,240.00
1383,-20.00
1384,-260.00
1385,-420.00
1386,-480.00
1387,-400.00
1388,-240.00
1389,20.00
1390,300.00
1391,560.00
1392,700.00
1393,760.00
1394,700.00
1395,520.00
1396,280.00
1397,0.00
1398,-260.00
1399,-420.00
1400,-480.00
1401,-420.00
1402,-260.00
1403,0.00
1404,280.00
1405,520.00
1406,680.00
1407,760.00
1408,700.00
1409,540.00
1410,300.00
1411,20.00
1412,-240.00
1413,-400.00
1414,-480.00
1415,-420.00
1416,-280.00
1417,-20.00
1418,260.00
1419,500.00
1420,680.00
1421,760.00
1422,700.00
1423,560.00
1424,320.00
1425,40.00
1426,-200.00
1427,-380.00
1428,-480.00
1429,-440.00
1430,-300.00
1431,-40.00
1432,220.00
1433,480.00
1434,660.00
1435,760.00
1436,720.00
1437,580.00
1438,320.00
1439,60.00
1440,-180.00
1441,-360.00
1442,-460.00
1443,-440.00
1444,-320.00
1445,-80.00
1446,200.00
1447,440.00
1448,660.00
1449,740.00
1450,720.00
1451,600.00
1452,360.00
1453,80.00
1454,-180.00
1455,-360.00
1456,-480.00
1457,-440.00
1458,-340.00
1459,-100.00
1460,180.00
1461,440.00
1462,660.00
1463,760.00
1464,740.00
1465,620.00
1466,380.00
1467,120.00
1468,-140.00
1469,-340.00
1470,-460.00
1471,-460.00
1472,-340.00
1473,-120.00
1474,140.00
1475,400.00
1476,620.00
1477,740.00
1478,740.00
1479,620.00
1480,400.00
1481,140.00
1482,-120.00
1483,-340.00
1484,-460.00
1485,-460.00
1486,-340.00
1487,-140.00
1488,120.00
1489,380.00
1490,620.00
1491,740.00
1492,740.00
1493,660.00
1494,440.00
1495,180.00
1496,-100.00
1497,-340.00
1498,-460.00
1499,-480.00
1500,-360.00
1501,-180.00
1502,80.00
1503,360.00
1504,600.00
1505,720.00
1506,760.00
1507,660.00
1508,460.00
1509,200.00
1510,-60.00
1511,-300.00
1512,-440.00
1513,-480.00
1514,-380.00
1515,-200.00
1516,60.00
1517,340.00
1518,580.00
1519,720.00
1520,740.00
1521,660.00
1522,480.00
1523,220.00
1524,-40.00
1525,-280.00
1526,-440.00
1527,-480.00
1528,-400.00
1529,-220.00
1530,20.00
1531,320.00
1532,560.00
1533,720.00
1534,760.00
1535,700.00
1536,520.00
1537,260.00
1538,-20.00
1539,-280.00
1540,-440.00
1541,-480.00
1542,-420.00
1543,-240.00
1544,0.00
1545,300.00
1546,540.00
1547,700.00
1548,740.00
1549,680.00
1550,520.00
1551,280.00
1552,0.00
1553,-240.00
1554,-400.00
1555,-480.00
1556,-420.00
1557,-260.00
1558,0.00
1559,280.00
1560,520.00
1561,700.00
1562,760.00
1563,700.00
1564,540.00
1565,300.00
1566,20.00
1567,-220.00
1568,-400.00
1569,-480.00
1570,-420.00
1571,-280.00
1572,-20.00
1573,240.00
1574,480.00
1575,660.00
1576,760.00
1577,720.00
1578,580.00
1579,340.00
1580,100.00
1581,-120.00
1582,-320.00
1583,-420.00
1584,-460.00
1585,-420.00
1586,-320.00
1587,-140.00
1588,80.00
1589,300.00
1590,500.00
1591,640.00
1592,660.00
1593,600.00
1594,400.00
1595,140.00
1596,-120.00
1597,-380.00
1598,-560.00
1599,-640.00
1600,-580.00
1601,-400.00
1602,-160.00
1603,140.00
1604,400.00
1605,620.00
1606,680.00
1607,640.00
1608,460.00
1609,200.00
1610,-100.00
1611,-360.00
1612,-560.00
1613,-640.00
1614,-600.00
1615,-420.00
1616,-180.00
1617,120.00
1618,380.00
1619,600.00
1620,660.00
1621,640.00
1622,460.00
1623,200.00
1624,-80.00
1625,-340.00
1626,-540.00
1627,-640.00
1628,-600.00
1629,-440.00
1630,-200.00
1631,100.00
1632,360.00
1633,580.00
1634,660.00
1635,660.00
1636,480.00
1637,240.00
1638,-40.00
1639,-340.00
1640,-540.00
1641,-640.00
1642,-620.00
1643,-460.00
1644,-220.00
1645,60.00
1646,340.00
1647,560.00
1648,660.00
1649,660.00
1650,500.00
1651,280.00
1652,0.00
1653,-300.00
1654,-520.00
1655,-640.00
1656,-620.00
1657,-480.00
1658,-260.00
1659,40.00
1660,320.00
1661,560.00
1662,660.00
1663,660.00
1664,520.00
1665,300.00
1666,0.00
1667,-300.00
1668,-520.00
1669,-640.00
1670,-640.00
1671,-500.00
1672,-280.00
1673,20.00
1674,320.00
1675,540.00
1676,660.00
1677,660.00
1678,560.00
1679,320.00
1680,20.00
1681,-260.00
1682,-480.00
1683,-620.00
1684,-640.00
1685,-520.00
1686,-320.00
1687,-20.00
1688,280.00
1689,500.00
1690,660.00
1691,660.00
1692,560.00
1693,340.00
1694,60.00
1695,-220.00
1696,-460.00
1697,-620.00
1698,-640.00
1699,-540.00
1700,-340.00
1701,-40.00
1702,240.00
1703,480.00
1704,640.00
1705,660.00
1706,580.00
1707,360.00
1708,80.00
1709,-200.00
1710,-440.00
1711,-620.00
1712,-660.00
1713,-560.00
1714,-340.00
1715,-80.00
1716,220.00
1717,460.00
1718,640.00
1719,660.00
1720,600.00
1721,380.00
1722,120.00
1723,-160.00
1724,-400.00
1725,-580.00
1726,-640.00
1727,-560.00
1728,-360.00
1729,-100.00
1730,180.00
1731,440.00
1732,620.00
1733,660.00
1734,600.00
1735,400.00
1736,140.00
1737,-160.00
1738,-400.00
1739,-580.00
1740,-640.00
1741,-580.00
1742,-400.00
1743,-140.00
1744,160.00
1745,420.00
1746,620.00
1747,680.00
1748,640.00
1749,440.00
1750,180.00
1751,-120.00
1752,-360.00
1753,-560.00
1754,-660.00
1755,-600.00
1756,-420.00
1757,-180.00
1758,120.00
1759,400.00
1760,600.00
1761,660.00
1762,640.00
1763,460.00
1764,200.00
1765,-80.00
1766,-340.00
1767,-560.00
1768,-640.00
1769,-600.00
1770,-440.00
1771,-200.00
1772,100.00
1773,360.00
1774,580.00
1775,660.00
1776,640.00
1777,480.00
1778,220.00
1779,-60.00
1780,-340.00
1781,-540.00
1782,-660.00
1783,-620.00
1784,-460.00
1785,-220.00
1786,60.00
1787,320.00
1788,560.00
1789,660.00
1790,660.00
1791,520.00
1792,280.00
1793,-20.00
1794,-320.00
1795,-520.00
1796,-640.00
1797,-620.00
1798,-480.00
1799,-260.00
1800,540.00
1801,660.00
1802,660.00
1803,520.00
1804,280.00
1805,0.00
1806,-300.00
1807,-520.00
1808,-660.00
1809,-640.00
1810,-500.00
1811,-280.00
1812,20.00
1813,320.00
1814,540.00
1815,660.00
1816,660.00
1817,540.00
1818,320.00
1819,20.00
1820,-260.00
1821,-500.00
1822,-640.00
1823,-640.00
1824,-520.00
1825,-300.00
1826,-20.00
1827,280.00
1828,500.00
1829,660.00
1830,660.00
1831,540.00
1832,320.00
1833,40.00
1834,-240.00
1835,-460.00
1836,-620.00
1837,-640.00
1838,-540.00
1839,-340.00
1840,-40.00
1841,260.00
1842,500.00
1843,660.00
1844,660.00
1845,580.00
1846,340.00
1847,60.00
1848,-220.00
1849,-460.00
1850,-620.00
1851,-660.00
1852,-560.00
1853,-340.00
1854,-60.00
1855,220.00
1856,460.00
1857,640.00
1858,660.00
1859,580.00
1860,380.00
1861,100.00
1862,-180.00
1863,-420.00
1864,-600.00
1865,-640.00
1866,-560.00
1867,-360.00
1868,-100.00
1869,200.00
1870,440.00
1871,620.00
1872,660.00
1873,600.00
1874,380.00
1875,120.00
1876,-160.00
1877,-400.00
1878,-580.00
1879,-660.00
1880,-580.00
1881,-400.00
1882,-140.00
1883,160.00
1884,440.00
1885,620.00
1886,680.00
1887,620.00
1888,420.00
1889,160.00
1890,-120.00
1891,-380.00
1892,-580.00
1893,-660.00
1894,-600.00
1895,-420.00
1896,-160.00
1897,120.00
1898,380.00
1899,600.00
1900,660.00
1901,640.00
1902,440.00
1903,200.00
1904,-100.00
1905,-360.00
1906,-560.00
1907,-660.00
1908,-620.00
1909,-440.00
1910,-200.00
1911,100.00
1912,380.00
1913,600.00
1914,660.00
1915,640.00
1916,460.00
1917,220.00
1918,-60.00
1919,-340.00
1920,-540.00
1921,-660.00
1922,-620.00
1923,-460.00
1924,-220.00
1925,60.00
1926,340.00
1927,560.00
1928,660.00
1929,640.00
1930,480.00
1931,240.00
1932,-40.00
1933,-320.00
1934,-520.00
1935,-640.00
1936,-620.00
1937,-480.00
1938,-240.00
1939,40.00
1940,320.00
1941,540.00
1942,660.00
1943,660.00
1944,520.00
1945,280.00
1946,0.00
1947,-300.00
1948,-520.00
1949,-640.00
1950,-640.00
1951,-500.00
1952,-280.00
1953,0.00
1954,320.00
1955,540.00
1956,660.00
1957,660.00
1958,540.00
1959,320.00
1960,0.00
1961,-260.00
1962,-500.00
1963,-640.00
1964,-640.00
1965,-520.00
1966,-300.00
1967,0.00
1968,280.00
1969,500.00
1970,660.00
1971,660.00
1972,540.00
1973,320.00
1974,40.00
1975,-240.00
1976,-480.00
1977,-620.00
1978,-640.00
1979,-540.00
1980,-320.00
1981,-20.00
1982,260.00
1983,500.00
1984,660.00
1985,680.00
1986,600.00
1987,360.00
1988,80.00
1989,-220.00
1990,-480.00
1991,-640.00
1992,-640.00
1993,-500.00
1994,-280.00
1995,0.00
1996,260.00
1997,400.00
1998,400.00
1999,300.00
2000,60.00
2001,-160.00
2002,-340.00
2003,-420.00
2004,-380.00
2005,-260.00
2006,-60.00
2007,100.00
2008,240.00
2009,240.00
2010,160.00
2011,0.00
2012,-220.00
2013,-420.00
2014,-580.00
2015,-680.00
2016,-660.00
2017,-560.00
2018,-360.00
2019,-160.00
2020,40.00
2021,200.00
2022,300.00
2023,300.00
2024,180.00
2025,0.00
2026,-200.00
2027,-380.00
2028,-540.00
2029,-640.00
2030,-640.00
2031,-540.00
2032,-360.00
2033,-180.00
2034,0.00
2035,180.00
2036,280.00
2037,280.00
2038,200.00
2039,20.00
2040,-180.00
2041,-360.00
2042,-540.00
2043,-660.00
2044,-660.00
2045,-580.00
2046,-400.00
2047,-200.00
2048,0.00
2049,180.00
2050,280.00
2051,300.00
2052,220.00
2053,40.00
2054,-140.00
2055,-340.00
2056,-540.00
2057,-640.00
2058,-660.00
2059,-580.00
2060,-420.00
2061,-220.00
2062,0.00
2063,160.00
2064,260.00
2065,300.00
2066,220.00
2067,60.00
2068,-120.00
2069,-340.00
2070,-520.00
2071,-620.00
2072,-660.00
2073,-580.00
2074,-420.00
2075,-240.00
2076,-20.00
2077,140.00
2078,260.00
2079,300.00
2080,240.00
2081,80.00
2082,-120.00
2083,-340.00
2084,-500.00
2085,-620.00
2086,-660.00
2087,-600.00
2088,-460.00
2089,-280.00
2090,-60.00
2091,120.00
2092,260.00
2093,300.00
2094,240.00
2095,100.00
2096,-80.00
2097,-300.00
2098,-480.00
2099,-620.00
2100,-660.00
2101,-600.00
2102,-460.00
2103,-280.00
2104,-60.00
2105,120.00
2106,260.00
2107,300.00
2108,240.00
2109,100.00
2110,-80.00
2111,-280.00
2112,-460.00
2113,-600.00
2114,-660.00
2115,-620.00
2116,-480.00
2117,-320.00
2118,-80.00
2119,100.00
2120,240.00
2121,300.00
2122,260.00
2123,140.00
2124,-40.00
2125,-260.00
2126,-440.00
2127,-600.00
2128,-660.00
2129,-640.00
2130,-500.00
2131,-320.00
2132,-100.00
2133,80.00
2134,220.00
2135,300.00
2136,260.00
2137,140.00
2138,-40.00
2139,-240.00
2140,-420.00
2141,-580.00
2142,-640.00
2143,-620.00
2144,-520.00
2145,-340.00
2146,-120.00
2147,60.00
2148,220.00
2149,300.00
2150,280.00
2151,160.00
2152,0.00
2153,-220.00
2154,-420.00
2155,-580.00
2156,-660.00
2157,-640.00
2158,-520.00
2159,-340.00
2160,-160.00
2161,40.00
2162,200.00
2163,280.00
2164,280.00
2165,180.00
2166,0.00
2167,-200.00
2168,-380.00
2169,-560.00
2170,-640.00
2171,-640.00
2172,-540.00
2173,-360.00
2174,-160.00
2175,20.00
2176,200.00
2177,280.00
2178,280.00
2179,180.00
2180,20.00
2181,-180.00
2182,-380.00
2183,-540.00
2184,-640.00
2185,-640.00
2186,-560.00
2187,-380.00
2188,-180.00
2189,0.00
2190,180.00
2191,280.00
2192,300.00
2193,220.00
2194,40.00
2195,-140.00
2196,-340.00
2197,-540.00
2198,-640.00
2199,-660.00
2200,-580.00
2201,-420.00
2202,-220.00
2203,0.00
2204,160.00
2205,280.00
2206,300.00
2207,220.00
2208,60.00
2209,-140.00
2210,-340.00
2211,-520.00
2212,-640.00
2213,-660.00
2214,-580.00
2215,-420.00
2216,-220.00
2217,-20.00
2218,140.00
2219,260.00
2220,300.00
2221,220.00
2222,80.00
2223,-120.00
2224,-340.00
2225,-500.00
2226,-620.00
2227,-640.00
2228,-580.00
2229,-440.00
2230,-260.00
2231,-40.00
2232,120.00
2233,260.00
2234,280.00
2235,220.00
2236,80.00
2237,-80.00
2238,-300.00
2239,-480.00
2240,-620.00
2241,-660.00
2242,-600.00
2243,-460.00
2244,-280.00
2245,-60.00
2246,120.00
2247,260.00
2248,300.00
2249,260.00
2250,100.00
2251,-80.00
2252,-300.00
2253,-460.00
2254,-600.00
2255,-660.00
2256,-620.00
2257,-480.00
2258,-300.00
2259,-80.00
2260,120.00
2261,260.00
2262,300.00
2263,260.00
2264,120.00
2265,-40.00
2266,-260.00
2267,-440.00
2268,-600.00
2269,-660.00
2270,-620.00
2271,-480.00
2272,-320.00
2273,-100.00
2274,100.00
2275,240.00
2276,300.00
2277,260.00
2278,140.00
2279,-40.00
2280,-260.00
2281,-440.00
2282,-580.00
2283,-660.00
2284,-620.00
2285,-500.00
2286,-320.00
2287,-100.00
2288,80.00
2289,240.00
2290,300.00
2291,280.00
2292,160.00
2293,-20.00
2294,-240.00
2295,-420.00
2296,-580.00
2297,-640.00
2298,-640.00
2299,-520.00
2300,-340.00
2301,-140.00
2302,40.00
2303,220.00
2304,300.00
2305,280.00
2306,180.00
2307,0.00
2308,-200.00
2309,-400.00
2310,-560.00
2311,-640.00
2312,-620.00
2313,-520.00
2314,-360.00
2315,-160.00
2316,40.00
2317,200.00
2318,300.00
2319,280.00
2320,180.00
2321,0.00
2322,-200.00
2323,-380.00
2324,-540.00
2325,-640.00
2326,-640.00
2327,-560.00
2328,-380.00
2329,-200.00
2330,0.00
2331,200.00
2332,300.00
2333,300.00
2334,220.00
2335,40.00
2336,-160.00
2337,-360.00
2338,-540.00
2339,-640.00
2340,-660.00
2341,-560.00
2342,-400.00
2343,-200.00
2344,0.00
2345,180.00
2346,280.00
2347,300.00
2348,220.00
2349,40.00
2350,-140.00
2351,-340.00
2352,-520.00
2353,-620.00
2354,-640.00
2355,-560.00
2356,-420.00
2357,-220.00
2358,0.00
2359,160.00
2360,280.00
2361,300.00
2362,240.00
2363,80.00
2364,-120.00
2365,-340.00
2366,-520.00
2367,-640.00
2368,-660.00
2369,-580.00
2370,-440.00
2371,-240.00
2372,-20.00
2373,140.00
2374,280.00
2375,300.00
2376,240.00
2377,80.00
2378,-100.00
2379,-320.00
2380,-480.00
2381,-620.00
2382,-640.00
2383,-580.00
2384,-440.00
2385,-260.00
2386,-60.00
2387,120.00
2388,260.00
2389,300.00
2390,240.00
2391,100.00
2392,-80.00
2393,-300.00
2394,-480.00
2395,-600.00
2396,-660.00
2397,-600.00
2398,-480.00
2399,-280.00
2400,260.00
2401,320.00
2402,280.00
2403,140.00
2404,-40.00
2405,-260.00
2406,-460.00
2407,-580.00
2408,-620.00
2409,-560.00
2410,-440.00
2411,-280.00
2412,-120.00
2413,0.00
2414,40.00
2415,20.00
2416,-40.00
2417,-120.00
2418,-220.00
2419,-300.00
2420,-340.00
2421,-340.00
2422,-340.00
2423,-320.00
2424,-300.00
2425,-300.00
2426,-300.00
2427,-300.00
2428,-300.00
2429,-320.00
2430,-320.00
2431,-320.00
2432,-300.00
2433,-300.00
2434,-300.00
2435,-300.00
2436,-300.00
2437,-300.00
2438,-300.00
2439,-300.00
2440,-300.00
2441,-300.00
2442,-300.00
2443,-300.00
2444,-300.00
2445,-300.00
2446,-300.00
2447,-300.00
2448,-300.00
2449,-300.00
2450,-300.00
2451,-300.00
2452,-300.00
2453,-300.00
2454,-300.00
2455,-300.00
2456,-320.00
2457,-300.00
2458,-300.00
2459,-300.00
2460,-300.00
2461,-300.00
2462,-300.00
2463,-300.00
2464,-300.00
2465,-300.00
2466,-300.00
2467,-300.00
2468,-300.00
2469,-300.00
2470,-300.00
2471,-300.00
2472,-300.00
2473,-300.00
2474,-300.00
2475,-300.00
2476,-300.00
2477,-300.00
2478,-300.00
2479,-300.00
2480,-300.00
2481,-300.00
2482,-300.00
2483,-320.00
2484,-320.00
2485,-300.00
2486,-300.00
2487,-300.00
2488,-300.00
2489,-300.00
2490,-300.00
2491,-300.00
2492,-300.00
2493,-300.00
2494,-300.00
2495,-300.00
2496,-300.00
2497,-300.00
2498,-300.00
2499,-300.00
2500,-300.00
2501,-300.00
2502,-300.00
2503,-300.00
2504,-300.00
2505,-300.00
2506,-300.00
2507,-300.00
2508,-300.00
2509,-300.00
2510,-320.00
2511,-300.00
2512,-300.00
2513,-300.00
2514,-300.00
2515,-300.00
2516,-300.00
2517,-300.00
2518,-300.00
2519,-300.00
2520,-300.00
2521,-300.00
2522,-300.00
2523,-300.00
2524,-300.00
2525,-300.00
2526,-300.00
2527,-300.00
2528,-300.00
2529,-300.00
2530,-300.00
2531,-300.00
2532,-320.00
2533,-300.00
2534,-300.00
2535,-300.00
2536,-300.00
2537,-300.00
2538,-300.00
2539,-300.00
2540,-300.00
2541,-300.00
2542,-300.00
2543,-300.00
2544,-300.00
2545,-300.00
2546,-300.00
2547,-300.00
2548,-300.00
2549,-300.00
2550,-300.00
2551,-300.00
2552,-300.00
2553,-300.00
2554,-300.00
2555,-300.00
2556,-300.00
2557,-300.00
2558,-300.00
2559,-300.00
2560,-300.00
2561,-300.00
2562,-300.00
2563,-300.00
2564,-300.00
2565,-300.00
2566,-300.00
2567,-300.00
2568,-300.00
2569,-300.00
2570,-300.00
2571,-300.00
2572,-300.00
2573,-300.00
2574,-300.00
2575,-300.00
2576,-300.00
2577,-300.00
2578,-300.00
2579,-300.00
2580,-300.00
2581,-300.00
2582,-300.00
2583,-300.00
2584,-300.00
2585,-300.00
2586,-300.00
2587,-300.00
2588,-300.00
2589,-300.00
2590,-300.00
2591,-300.00
2592,-300.00
2593,-300.00
2594,-300.00
2595,-300.00
2596,-300.00
2597,-300.00
2598,-300.00
2599,-300.00
2600,-300.00
2601,-320.00
2602,-320.00
2603,-300.00
2604,-300.00
2605,-300.00
2606,-300.00
2607,-300.00
2608,-320.00
2609,-300.00
2610,-300.00
2611,-300.00
2612,-300.00
2613,-300.00
2614,-300.00
2615,-300.00
2616,-300.00
2617,-300.00
2618,-300.00
2619,-300.00
2620,-300.00
2621,-300.00
2622,-300.00
2623,-300.00
2624,-300.00
2625,-300.00
2626,-300.00
2627,-300.00
2628,-300.00
2629,-320.00
2630,-320.00
2631,-300.00
2632,-300.00
2633,-300.00
2634,-300.00
2635,-300.00
2636,-300.00
2637,-300.00
2638,-300.00
2639,-300.00
2640,-300.00
2641,-300.00
2642,-300.00
2643,-300.00
2644,-300.00
2645,-300.00
2646,-300.00
2647,-300.00
2648,-300.00
2649,-300.00
2650,-320.00
2651,-300.00
2652,-300.00
2653,-300.00
2654,-300.00
2655,-320.00
2656,-320.00
2657,-300.00
2658,-300.00
2659,-300.00
2660,-300.00
2661,-300.00
2662,-300.00
2663,-300.00
2664,-300.00
2665,-300.00
2666,-300.00
2667,-300.00
2668,-300.00
2669,-300.00
2670,-320.00
2671,-320.00
2672,-300.00
2673,-300.00
2674,-300.00
2675,-300.00
2676,-300.00
2677,-320.00
2678,-320.00
2679,-300.00
2680,-300.00
2681,-300.00
2682,-300.00
2683,-300.00
2684,-300.00
2685,-300.00
2686,-300.00
2687,-300.00
2688,-300.00
2689,-300.00
2690,-300.00
2691,-300.00
2692,-320.00
2693,-300.00
2694,-300.00
2695,-300.00
2696,-300.00
2697,-300.00
2698,-320.00
2699,-320.00
2700,-300.00
2701,-300.00
2702,-300.00
2703,-300.00
2704,-300.00
2705,-300.00
2706,-300.00
2707,-300.00
2708,-300.00
2709,-300.00
2710,-300.00
2711,-300.00
2712,-300.00
2713,-300.00
2714,-300.00
2715,-300.00
2716,-300.00
2717,-300.00
2718,-300.00
2719,-300.00
2720,-300.00
2721,-300.00
2722,-300.00
2723,-300.00
2724,-300.00
2725,-300.00
2726,-300.00
2727,-300.00
2728,-300.00
2729,-300.00
2730,-300.00
2731,-300.00
2732,-300.00
2733,-300.00
2734,-300.00
2735,-300.00
2736,-300.00
2737,-300.00
2738,-300.00
2739,-320.00
2740,-320.00
2741,-300.00
2742,-300.00
2743,-300.00
2744,-300.00
2745,-300.00
2746,-300.00
2747,-300.00
2748,-300.00
2749,-300.00
2750,-300.00
2751,-300.00
2752,-300.00
2753,-300.00
2754,-300.00
2755,-300.00
2756,-300.00
2757,-300.00
2758,-300.00
2759,-300.00
2760,-300.00
2761,-300.00
2762,-300.00
2763,-300.00
2764,-300.00
2765,-300.00
2766,-300.00
2767,-300.00
2768,-320.00
2769,-320.00
2770,-300.00
2771,-300.00
2772,-300.00
2773,-320.00
2774,-300.00
2775,-300.00
2776,-300.00
2777,-300.00
2778,-300.00
2779,-300.00
2780,-300.00
2781,-300.00
2782,-300.00
2783,-300.00
2784,-300.00
2785,-300.00
2786,-300.00
2787,-300.00
2788,-320.00
2789,-320.00
2790,-320.00
2791,-320.00
2792,-320.00
2793,-300.00
2794,-300.00
2795,-300.00
2796,-320.00
2797,-320.00
2798,-300.00
2799,-300.00
2800,-300.00
2801,-300.00
2802,-300.00
2803,-300.00
2804,-300.00
2805,-300.00
2806,-300.00
2807,-300.00
2808,-300.00
2809,-300.00
2810,-320.00
2811,-320.00
2812,-300.00
2813,-300.00
2814,-300.00
2815,-300.00
2816,-320.00
2817,-320.00
2818,-320.00
2819,-300.00
2820,-300.00
2821,-300.00
2822,-300.00
2823,-300.00
2824,-300.00
2825,-300.00
2826,-300.00
2827,-300.00
2828,-300.00
2829,-300.00
2830,-300.00
2831,-300.00
2832,-300.00
2833,-300.00
2834,-300.00
2835,-300.00
2836,-300.00
2837,-320.00
2838,-300.00
2839,-300.00
2840,-300.00
2841,-300.00
2842,-300.00
2843,-320.00
2844,-320.00
2845,-300.00
2846,-300.00
2847,-300.00
2848,-300.00
2849,-300.00
2850,-300.00
2851,-300.00
2852,-300.00
2853,-300.00
2854,-300.00
2855,-300.00
2856,-320.00
2857,-320.00
2858,-300.00
2859,-300.00
2860,-300.00
2861,-300.00
2862,-300.00
2863,-300.00
2864,-320.00
2865,-320.00
2866,-320.00
2867,-300.00
2868,-300.00
2869,-300.00
2870,-300.00
2871,-300.00
2872,-300.00
2873,-300.00
2874,-300.00
2875,-300.00
2876,-300.00
2877,-300.00
2878,-320.00
2879,-320.00
2880,-320.00
2881,-300.00
2882,-300.00
2883,-300.00
2884,-320.00
2885,-340.00
2886,-380.00
2887,-440.00
2888,-500.00
2889,-560.00
2890,-640.00
2891,-680.00
2892,-760.00
2893,-800.00
2894,-840.00
2895,-880.00
2896,-880.00
2897,-900.00
2898,-900.00
2899,-900.00
2900,-900.00
2901,-880.00
2902,-880.00
2903,-880.00
2904,-900.00
2905,-900.00
2906,-900.00
2907,-900.00
2908,-900.00
2909,-900.00
2910,-900.00
2911,-900.00
2912,-900.00
2913,-900.00
2914,-900.00
2915,-900.00
2916,-900.00
2917,-880.00
2918,-900.00
2919,-900.00
2920,-900.00
2921,-880.00
2922,-900.00
2923,-880.00
2924,-880.00
2925,-900.00
2926,-900.00
2927,-900.00
2928,-900.00
2929,-900.00
2930,-900.00
2931,-900.00
2932,-900.00
2933,-900.00
2934,-900.00
2935,-900.00
2936,-900.00
2937,-900.00
2938,-900.00
2939,-900.00
2940,-900.00
2941,-900.00
2942,-900.00
2943,-880.00
2944,-880.00
2945,-880.00
2946,-900.00
2947,-880.00
2948,-900.00
2949,-900.00
2950,-900.00
2951,-900.00
2952,-900.00
2953,-900.00
2954,-900.00
2955,-900.00
2956,-900.00
2957,-900.00
2958,-900.00
2959,-900.00
2960,-900.00
2961,-900.00
2962,-900.00
2963,-900.00
2964,-900.00
2965,-880.00
2966,-880.00
2967,-880.00
2968,-900.00
2969,-900.00
2970,-900.00
2971,-900.00
2972,-900.00
2973,-900.00
2974,-900.00
2975,-900.00
2976,-900.00
2977,-900.00
2978,-900.00
2979,-900.00
2980,-900.00
2981,-900.00
2982,-900.00
2983,-900.00
2984,-900.00
2985,-900.00
2986,-900.00
2987,-900.00
2988,-900.00
2989,-900.00
2990,-900.00
2991,-900.00
2992,-900.00
2993,-880.00
2994,-900.00
2995,-900.00
2996,-900.00
2997,-900.00
2998,-900.00
2999,-900.00
3000,-900.00
3001,-900.00
3002,-900.00
3003,-900.00
3004,-900.00
3005,-900.00
3006,-900.00
3007,-900.00
3008,-900.00
3009,-900.00
3010,-900.00
3011,-900.00
3012,-900.00
3013,-900.00
3014,-900.00
3015,-900.00
3016,-900.00
3017,-900.00
3018,-900.00
3019,-900.00
3020,-900.00
3021,-900.00
3022,-900.00
3023,-900.00
3024,-900.00
3025,-900.00
3026,-900.00
3027,-900.00
3028,-900.00
3029,-900.00
3030,-900.00
3031,-900.00
3032,-900.00
3033,-900.00
3034,-900.00
3035,-900.00
3036,-900.00
3037,-900.00
3038,-900.00
3039,-900.00
3040,-880.00
3041,-900.00
3042,-900.00
3043,-900.00
3044,-900.00
3045,-900.00
3046,-900.00
3047,-900.00
3048,-900.00
3049,-900.00
3050,-900.00
3051,-900.00
3052,-900.00
3053,-900.00
3054,-900.00
3055,-900.00
3056,-900.00
3057,-900.00
3058,-900.00
3059,-900.00
3060,-900.00
3061,-900.00
3062,-900.00
3063,-900.00
3064,-900.00
3065,-900.00
3066,-900.00
3067,-900.00
3068,-900.00
3069,-900.00
3070,-900.00
3071,-900.00
3072,-900.00
3073,-900.00
3074,-900.00
3075,-900.00
3076,-900.00
3077,-900.00
3078,-900.00
3079,-900.00
3080,-900.00
3081,-900.00
3082,-900.00
3083,-900.00
3084,-900.00
3085,-900.00
3086,-900.00
3087,-900.00
3088,-900.00
3089,-900.00
3090,-900.00
3091,-900.00
3092,-900.00
3093,-900.00
3094,-900.00
3095,-900.00
3096,-900.00
3097,-900.00
3098,-900.00
3099,-900.00
3100,-900.00
3101,-900.00
3102,-900.00
3103,-900.00
3104,-900.00
3105,-900.00
3106,-900.00
3107,-900.00
3108,-900.00
3109,-900.00
3110,-900.00
3111,-900.00
3112,-900.00
3113,-900.00
3114,-900.00
3115,-900.00
3116,-900.00
3117,-900.00
3118,-900.00
3119,-900.00
3120,-920.00
3121,-900.00
3122,-900.00
3123,-900.00
3124,-900.00
3125,-900.00
3126,-900.00
3127,-900.00
3128,-900.00
3129,-900.00
3130,-900.00
3131,-900.00
3132,-900.00
3133,-900.00
3134,-900.00
3135,-900.00
3136,-900.00
3137,-900.00
3138,-900.00
3139,-900.00
3140,-900.00
3141,-900.00
3142,-900.00
3143,-900.00
3144,-900.00
3145,-900.00
3146,-900.00
3147,-900.00
3148,-920.00
3149,-900.00
3150,-900.00
3151,-900.00
3152,-900.00
3153,-900.00
3154,-900.00
3155,-900.00
3156,-900.00
3157,-900.00
3158,-880.00
3159,-900.00
3160,-900.00
3161,-900.00
3162,-900.00
3163,-900.00
3164,-900.00
3165,-900.00
3166,-900.00
3167,-900.00
3168,-900.00
3169,-900.00
3170,-900.00
3171,-900.00
3172,-900.00
3173,-900.00
3174,-900.00
3175,-900.00
3176,-900.00
3177,-900.00
3178,-880.00
3179,-840.00
3180,-820.00
3181,-760.00
3182,-720.00
3183,-660.00
3184,-580.00
3185,-520.00
3186,-460.00
3187,-400.00
3188,-340.00
3189,-320.00
3190,-320.00
3191,-320.00
3192,-320.00
3193,-320.00
3194,-320.00
3195,-320.00
3196,-320.00
3197,-320.00
3198,-320.00
3199,-300.00
3200,-300.00
3201,-300.00
3202,-300.00
3203,-300.00
3204,-320.00
3205,-320.00
3206,-300.00
3207,-300.00
3208,-320.00
3209,-320.00
3210,-320.00
3211,-320.00
3212,-320.00
3213,-320.00
3214,-320.00
3215,-320.00
3216,-320.00
3217,-300.00
3218,-320.00
3219,-300.00
3220,-300.00
3221,-300.00
3222,-300.00
3223,-300.00
3224,-300.00
3225,-280.00
3226,-280.00
3227,-260.00
3228,-280.00
3229,-300.00
3230,-340.00
3231,-360.00
3232,-380.00
3233,-420.00
3234,-420.00
3235,-380.00
3236,-340.00
3237,-280.00
3238,-200.00
3239,-120.00
3240,-80.00
3241,-80.00
3242,-140.00
3243,-240.00
3244,-340.00
3245,-460.00
3246,-560.00
3247,-600.00
3248,-580.00
3249,-500.00
3250,-380.00
3251,-260.00
3252,-120.00
3253,-40.00
3254,0.00
3255,0.00
3256,-80.00
3257,-200.00
3258,-340.00
3259,-480.00
3260,-580.00
3261,-620.00
3262,-600.00
3263,-520.00
3264,-400.00
3265,-260.00
3266,-140.00
3267,-40.00
3268,0.00
3269,0.00
3270,-80.00
3271,-200.00
3272,-340.00
3273,-440.00
3274,-560.00
3275,-600.00
3276,-600.00
3277,-540.00
3278,-420.00
3279,-300.00
3280,-160.00
3281,-40.00
3282,0.00
3283,0.00
3284,-80.00
3285,-200.00
3286,-340.00
3287,-440.00
3288,-560.00
3289,-600.00
3290,-600.00
3291,-540.00
3292,-420.00
3293,-300.00
3294,-160.00
3295,-40.00
3296,0.00
3297,0.00
3298,-60.00
3299,-180.00
3300,-320.00
3301,-420.00
3302,-540.00
3303,-600.00
3304,-600.00
3305,-540.00
3306,-440.00
3307,-320.00
3308,-180.00
3309,-60.00
3310,0.00
3311,0.00
3312,-60.00
3313,-160.00
3314,-300.00
3315,-420.00
3316,-540.00
3317,-600.00
3318,-600.00
3319,-540.00
3320,-440.00
3321,-320.00
3322,-180.00
3323,-60.00
3324,0.00
3325,0.00
3326,-40.00
3327,-160.00
3328,-280.00
3329,-400.00
3330,-520.00
3331,-600.00
3332,-620.00
3333,-560.00
3334,-460.00
3335,-340.00
3336,-200.00
3337,-80.00
3338,0.00
3339,0.00
3340,-20.00
3341,-120.00
3342,-260.00
3343,-380.00
3344,-500.00
3345,-580.00
3346,-600.00
3347,-560.00
3348,-460.00
3349,-340.00
3350,-220.00
3351,-80.00
3352,-20.00
3353,0.00
3354,-20.00
3355,-120.00
3356,-260.00
3357,-380.00
3358,-520.00
3359,-580.00
3360,-620.00
3361,-560.00
3362,-460.00
3363,-340.00
3364,-240.00
3365,-120.00
3366,-60.00
3367,-40.00
3368,-80.00
3369,-160.00
3370,-260.00
3371,-340.00
3372,-420.00
3373,-460.00
3374,-460.00
3375,-420.00
3376,-380.00
3377,-340.00
3378,-300.00
3379,-260.00
3380,-260.00
3381,-260.00
3382,-280.00
3383,-300.00
3384,-300.00
3385,-320.00
3386,-320.00
3387,-320.00
3388,-300.00
3389,-300.00
3390,-300.00
3391,-300.00
3392,-300.00
3393,-300.00
3394,-320.00
3395,-300.00
3396,-320.00
3397,-320.00
3398,-320.00
3399,-320.00
3400,-320.00
3401,-320.00
3402,-320.00
3403,-320.00
3404,-320.00
3405,-320.00
3406,-320.00
3407,-320.00
3408,-320.00
3409,-300.00
3410,-300.00
3411,-300.00
3412,-300.00
3413,-300.00
3414,-300.00
3415,-300.00
3416,-300.00
3417,-300.00
3418,-300.00
3419,-320.00
3420,-320.00
3421,-320.00
3422,-300.00
3423,-300.00
3424,-300.00
3425,-300.00
3426,-320.00
3427,-320.00
3428,-320.00
3429,-320.00
3430,-320.00
3431,-320.00
3432,-320.00
3433,-300.00
3434,-300.00
3435,-300.00
3436,-300.00
3437,-300.00
3438,-300.00
3439,-300.00
3440,-300.00
3441,-300.00
3442,-300.00
3443,-320.00
3444,-300.00
3445,-300.00
3446,-320.00
3447,-320.00
3448,-320.00
3449,-300.00
3450,-300.00
3451,-320.00
3452,-300.00
3453,-300.00
3454,-300.00
3455,-300.00
3456,-300.00
3457,-320.00
3458,-320.00
3459,-300.00
3460,-300.00
3461,-300.00
3462,-300.00
3463,-300.00
3464,-300.00
3465,-300.00
3466,-320.00
3467,-300.00
3468,-300.00
3469,-300.00
3470,-320.00
3471,-320.00
3472,-320.00
3473,-320.00
3474,-320.00
3475,-300.00
3476,-320.00
3477,-300.00
3478,-320.00
3479,-320.00
3480,-320.00
3481,-300.00
3482,-300.00
3483,-300.00
3484,-300.00
3485,-300.00
3486,-280.00
3487,-280.00
3488,-280.00
3489,-300.00
3490,-340.00
3491,-360.00
3492,-380.00
3493,-360.00
3494,-280.00
3495,-100.00
3496,120.00
3497,360.00
3498,620.00
3499,760.00
3500,860.00
3501,880.00
3502,820.00
3503,760.00
3504,700.00
3505,680.00
3506,680.00
3507,700.00
3508,720.00
3509,740.00
3510,740.00
3511,740.00
3512,720.00
3513,720.00
3514,720.00
3515,720.00
3516,720.00
3517,720.00
3518,720.00
3519,720.00
3520,720.00
3521,740.00
3522,720.00
3523,720.00
3524,720.00
3525,720.00
3526,720.00
3527,720.00
3528,740.00
3529,740.00
3530,740.00
3531,740.00
3532,720.00
3533,740.00
3534,740.00
3535,740.00
3536,720.00
3537,720.00
3538,720.00
3539,740.00
3540,720.00
3541,720.00
3542,720.00
3543,720.00
3544,720.00
3545,740.00
3546,720.00
3547,720.00
3548,720.00
3549,720.00
3550,740.00
3551,740.00
3552,740.00
3553,740.00
3554,740.00
3555,740.00
3556,740.00
3557,740.00
3558,740.00
3559,740.00
3560,740.00
3561,740.00
3562,720.00
3563,720.00
3564,740.00
3565,720.00
3566,720.00
3567,720.00
3568,720.00
3569,720.00
3570,740.00
3571,740.00
3572,740.00
3573,740.00
3574,720.00
3575,720.00
3576,740.00
3577,740.00
3578,740.00
3579,740.00
3580,740.00
3581,740.00
3582,740.00
3583,740.00
3584,740.00
3585,740.00
3586,740.00
3587,740.00
3588,720.00
3589,720.00
3590,720.00
3591,720.00
3592,740.00
3593,720.00
3594,740.00
3595,740.00
3596,720.00
3597,720.00
3598,740.00
3599,740.00
3600,740.00
3601,740.00
3602,740.00
3603,740.00
3604,740.00
3605,740.00
3606,740.00
3607,740.00
3608,720.00
3609,720.00
3610,740.00
3611,740.00
3612,740.00
3613,740.00
3614,740.00
3615,740.00
3616,740.00
3617,720.00
3618,720.00
3619,740.00
3620,740.00
3621,740.00
3622,740.00
3623,740.00
3624,740.00
3625,740.00
3626,740.00
3627,740.00
3628,740.00
3629,740.00
3630,740.00
3631,740.00
3632,740.00
3633,720.00
3634,720.00
3635,740.00
3636,740.00
3637,740.00
3638,740.00
3639,740.00
3640,740.00
3641,740.00
3642,720.00
3643,740.00
3644,740.00
3645,740.00
3646,740.00
3647,740.00
3648,740.00
3649,740.00
3650,740.00
3651,740.00
3652,740.00
3653,720.00
3654,740.00
3655,740.00
3656,740.00
3657,740.00
3658,740.00
3659,740.00
3660,740.00
3661,740.00
3662,740.00
3663,740.00
3664,740.00
3665,740.00
3666,740.00
3667,740.00
3668,740.00
3669,740.00
3670,740.00
3671,740.00
3672,740.00
3673,740.00
3674,740.00
3675,740.00
3676,740.00
3677,740.00
3678,740.00
3679,740.00
3680,740.00
3681,740.00
3682,720.00
3683,740.00
3684,740.00
3685,740.00
3686,740.00
3687,740.00
3688,740.00
3689,740.00
3690,740.00
3691,740.00
3692,740.00
3693,740.00
3694,740.00
3695,740.00
3696,740.00
3697,740.00
3698,740.00
3699,740.00
3700,740.00
3701,740.00
3702,740.00
3703,740.00
3704,740.00
3705,740.00
3706,740.00
3707,740.00
3708,740.00
3709,740.00
3710,740.00
3711,740.00
3712,740.00
3713,740.00
3714,740.00
3715,740.00
3716,740.00
3717,740.00
3718,740.00
3719,740.00
3720,740.00
3721,740.00
3722,740.00
3723,740.00
3724,740.00
3725,740.00
3726,740.00
3727,740.00
3728,740.00
3729,740.00
3730,740.00
3731,740.00
3732,720.00
3733,740.00
3734,740.00
3735,740.00
3736,740.00
3737,740.00
3738,740.00
3739,740.00
3740,740.00
3741,740.00
3742,740.00
3743,740.00
3744,740.00
3745,740.00
3746,740.00
3747,740.00
3748,740.00
3749,740.00
3750,740.00
3751,740.00
3752,740.00
3753,740.00
3754,740.00
3755,740.00
3756,740.00
3757,740.00
3758,740.00
3759,740.00
3760,740.00
3761,740.00
3762,740.00
3763,740.00
3764,740.00
3765,740.00
3766,740.00
3767,740.00
3768,740.00
3769,740.00
3770,740.00
3771,740.00
3772,740.00
3773,740.00
3774,740.00
3775,740.00
3776,740.00
3777,740.00
3778,740.00
3779,740.00
3780,740.00
3781,740.00
3782,740.00
3783,740.00
3784,740.00
3785,740.00
3786,740.00
3787,740.00
3788,740.00
3789,740.00
3790,740.00
3791,740.00
3792,740.00
3793,740.00
3794,740.00
3795,740.00
3796,740.00
3797,740.00
3798,740.00
3799,740.00
3800,740.00
3801,740.00
3802,740.00
3803,740.00
3804,740.00
3805,740.00
3806,740.00
3807,740.00
3808,740.00
3809,740.00
3810,740.00
3811,740.00
3812,740.00
3813,740.00
3814,740.00
3815,740.00
3816,740.00
3817,740.00
3818,740.00
3819,740.00
3820,740.00
3821,740.00
3822,740.00
3823,740.00
3824,740.00
3825,740.00
3826,740.00
3827,740.00
3828,740.00
3829,740.00
3830,740.00
3831,740.00
3832,740.00
3833,740.00
3834,740.00
3835,740.00
3836,740.00
3837,740.00
3838,740.00
3839,740.00
3840,740.00
3841,740.00
3842,740.00
3843,740.00
3844,740.00
3845,740.00
3846,720.00
3847,740.00
3848,740.00
3849,740.00
3850,740.00
3851,740.00
3852,720.00
3853,740.00
3854,720.00
3855,740.00
3856,740.00
3857,740.00
3858,740.00
3859,740.00
3860,740.00
3861,740.00
3862,740.00
3863,740.00
3864,740.00
3865,740.00
3866,740.00
3867,740.00
3868,720.00
3869,740.00
3870,740.00
3871,740.00
3872,720.00
3873,720.00
3874,720.00
3875,720.00
3876,740.00
3877,740.00
3878,740.00
3879,740.00
3880,740.00
3881,740.00
3882,740.00
3883,740.00
3884,740.00
3885,740.00
3886,740.00
3887,740.00
3888,740.00
3889,740.00
3890,740.00
3891,740.00
3892,740.00
3893,740.00
3894,740.00
3895,740.00
3896,740.00
3897,720.00
3898,720.00
3899,720.00
3900,720.00
3901,720.00
3902,720.00
3903,740.00
3904,720.00
3905,700.00
3906,680.00
3907,660.00
3908,660.00
3909,660.00
3910,720.00
3911,800.00
3912,880.00
3913,960.00
3914,960.00
3915,920.00
3916,780.00
3917,620.00
3918,420.00
3919,280.00
3920,180.00
3921,160.00
3922,240.00
3923,380.00
3924,620.00
3925,820.00
3926,980.00
3927,1080.00
3928,1100.00
3929,1000.00
3930,860.00
3931,660.00
3932,440.00
3933,280.00
3934,160.00
3935,160.00
3936,240.00
3937,380.00
3938,600.00
3939,780.00
3940,980.00
3941,1060.00
3942,1080.00
3943,1000.00
3944,860.00
3945,660.00
3946,460.00
3947,280.00
3948,180.00
3949,160.00
3950,240.00
3951,380.00
3952,580.00
3953,780.00
3954,960.00
3955,1060.00
3956,1080.00
3957,1020.00
3958,880.00
3959,680.00
3960,480.00
3961,300.00
3962,180.00
3963,140.00
3964,220.00
3965,340.00
3966,540.00
3967,740.00
3968,940.00
3969,1060.00
3970,1080.00
3971,1020.00
3972,900.00
3973,700.00
3974,500.00
3975,320.00
3976,200.00
3977,160.00
3978,220.00
3979,340.00
3980,540.00
3981,740.00
3982,920.00
3983,1040.00
3984,1080.00
3985,1040.00
3986,920.00
3987,720.00
3988,520.00
3989,320.00
3990,200.00
3991,160.00
3992,200.00
3993,320.00
3994,500.00
3995,700.00
3996,920.00
3997,1040.00
3998,1100.00
3999,1060.00
4000,920.00
4001,740.00
4002,540.00
4003,340.00
4004,220.00
4005,140.00
4006,180.00
4007,320.00
4008,480.00
4009,680.00
4010,900.00
4011,1020.00
4012,1080.00
4013,1060.00
4014,940.00
4015,760.00
4016,560.00
4017,360.00
4018,220.00
4019,160.00
4020,180.00
4021,300.00
4022,460.00
4023,680.00
4024,880.00
4025,1020.00
4026,1080.00
4027,1060.00
4028,960.00
4029,780.00
4030,580.00
4031,380.00
4032,240.00
4033,160.00
4034,180.00
4035,280.00
4036,440.00
4037,660.00
4038,840.00
4039,1000.00
4040,1080.00
4041,1060.00
4042,980.00
4043,800.00
4044,600.00
4045,400.00
4046,260.00
4047,160.00
4048,180.00
4049,280.00
4050,420.00
4051,640.00
4052,840.00
4053,1000.00
4054,1080.00
4055,1080.00
4056,980.00
4057,820.00
4058,620.00
4059,400.00
4060,260.00
4061,160.00
4062,160.00
4063,240.00
4064,400.00
4065,620.00
4066,820.00
4067,980.00
4068,1080.00
4069,1080.00
4070,980.00
4071,840.00
4072,640.00
4073,420.00
4074,280.00
4075,180.00
4076,160.00
4077,240.00
4078,380.00
4079,600.00
4080,780.00
4081,980.00
4082,1060.00
4083,1080.00
4084,1000.00
4085,860.00
4086,660.00
4087,440.00
4088,280.00
4089,180.00
4090,160.00
4091,240.00
4092,380.00
4093,580.00
4094,780.00
4095,960.00
4096,1060.00
4097,1080.00
4098,1020.00
4099,880.00
4100,680.00
4101,460.00
4102,300.00
4103,180.00
4104,140.00
4105,220.00
4106,340.00
4107,560.00
4108,760.00
4109,940.00
4110,1040.00
4111,1080.00
4112,1020.00
4113,880.00
4114,680.00
4115,480.00
4116,320.00
4117,200.00
4118,160.00
4119,220.00
4120,340.00
4121,540.00
4122,740.00
4123,920.00
4124,1040.00
4125,1080.00
4126,1040.00
4127,900.00
4128,700.00
4129,500.00
4130,320.00
4131,200.00
4132,140.00
4133,200.00
4134,320.00
4135,520.00
4136,720.00
4137,920.00
4138,1040.00
4139,1080.00
4140,1040.00
4141,920.00
4142,740.00
4143,540.00
4144,340.00
4145,200.00
4146,140.00
4147,200.00
4148,320.00
4149,500.00
4150,680.00
4151,900.00
4152,1020.00
4153,1080.00
4154,1040.00
4155,940.00
4156,740.00
4157,540.00
4158,340.00
4159,220.00
4160,140.00
4161,180.00
4162,300.00
4163,480.00
4164,680.00
4165,880.00
4166,1020.00
4167,1080.00
4168,1060.00
4169,960.00
4170,780.00
4171,580.00
4172,360.00
4173,220.00
4174,160.00
4175,180.00
4176,280.00
4177,440.00
4178,660.00
4179,860.00
4180,1000.00
4181,1080.00
4182,1060.00
4183,960.00
4184,800.00
4185,600.00
4186,380.00
4187,240.00
4188,160.00
4189,160.00
4190,280.00
4191,440.00
4192,660.00
4193,840.00
4194,1000.00
4195,1080.00
4196,1080.00
4197,980.00
4198,820.00
4199,620.00
4200,160.00
4201,160.00
4202,260.00
4203,420.00
4204,620.00
4205,820.00
4206,980.00
4207,1080.00
4208,1080.00
4209,980.00
4210,840.00
4211,640.00
4212,420.00
4213,260.00
4214,160.00
4215,160.00
4216,260.00
4217,400.00
4218,600.00
4219,800.00
4220,980.00
4221,1080.00
4222,1080.00
4223,980.00
4224,840.00
4225,660.00
4226,440.00
4227,280.00
4228,180.00
4229,160.00
4230,240.00
4231,380.00
4232,580.00
4233,780.00
4234,980.00
4235,1060.00
4236,1100.00
4237,1020.00
4238,860.00
4239,660.00
4240,460.00
4241,280.00
4242,180.00
4243,160.00
4244,220.00
4245,360.00
4246,560.00
4247,760.00
4248,960.00
4249,1060.00
4250,1080.00
4251,1020.00
4252,880.00
4253,660.00
4254,480.00
4255,300.00
4256,180.00
4257,160.00
4258,220.00
4259,340.00
4260,560.00
4261,760.00
4262,940.00
4263,1040.00
4264,1080.00
4265,1040.00
4266,900.00
4267,700.00
4268,500.00
4269,320.00
4270,200.00
4271,140.00
4272,200.00
4273,320.00
4274,520.00
4275,720.00
4276,920.00
4277,1040.00
4278,1100.00
4279,1040.00
4280,920.00
4281,720.00
4282,520.00
4283,340.00
4284,220.00
4285,160.00
4286,200.00
4287,320.00
4288,500.00
4289,700.00
4290,900.00
4291,1020.00
4292,1080.00
4293,1040.00
4294,940.00
4295,740.00
4296,540.00
4297,340.00
4298,200.00
4299,160.00
4300,180.00
4301,320.00
4302,480.00
4303,680.00
4304,880.00
4305,1020.00
4306,1080.00
4307,1060.00
4308,960.00
4309,780.00
4310,580.00
4311,360.00
4312,220.00
4313,140.00
4314,160.00
4315,260.00
4316,440.00
4317,660.00
4318,880.00
4319,980.00
4320,1000.00
4321,920.00
4322,740.00
4323,540.00
4324,360.00
4325,300.00
4326,320.00
4327,440.00
4328,640.00
4329,800.00
4330,920.00
4331,920.00
4332,780.00
4333,540.00
4334,260.00
4335,0.00
4336,-200.00
4337,-260.00
4338,-180.00
4339,20.00
4340,320.00
4341,640.00
4342,900.00
4343,1060.00
4344,1100.00
4345,1020.00
4346,820.00
4347,560.00
4348,260.00
4349,0.00
4350,-160.00
4351,-220.00
4352,-160.00
4353,20.00
4354,320.00
4355,600.00
4356,860.00
4357,1020.00
4358,1080.00
4359,1020.00
4360,840.00
4361,580.00
4362,280.00
4363,0.00
4364,-160.00
4365,-240.00
4366,-160.00
4367,0.00
4368,280.00
4369,560.00
4370,820.00
4371,1000.00
4372,1100.00
4373,1040.00
4374,880.00
4375,620.00
4376,320.00
4377,40.00
4378,-140.00
4379,-220.00
4380,-180.00
4381,0.00
4382,240.00
4383,520.00
4384,800.00
4385,1000.00
4386,1100.00
4387,1060.00
4388,900.00
4389,640.00
4390,340.00
4391,60.00
4392,-140.00
4393,-240.00
4394,-200.00
4395,-40.00
4396,220.00
4397,500.00
4398,780.00
4399,980.00
4400,1080.00
4401,1060.00
4402,920.00
4403,660.00
4404,360.00
4405,100.00
4406,-100.00
4407,-220.00
4408,-200.00
4409,-60.00
4410,180.00
4411,460.00
4412,740.00
4413,980.00
4414,1080.00
4415,1080.00
4416,940.00
4417,680.00
4418,400.00
4419,120.00
4420,-80.00
4421,-200.00
4422,-200.00
4423,-60.00
4424,160.00
4425,440.00
4426,720.00
4427,980.00
4428,1080.00
4429,1080.00
4430,960.00
4431,720.00
4432,420.00
4433,140.00
4434,-80.00
4435,-220.00
4436,-220.00
4437,-80.00
4438,140.00
4439,420.00
4440,700.00
4441,940.00
4442,1080.00
4443,1080.00
4444,980.00
4445,740.00
4446,460.00
4447,180.00
4448,-40.00
4449,-200.00
4450,-220.00
4451,-100.00
4452,100.00
4453,380.00
4454,660.00
4455,920.00
4456,1060.00
4457,1100.00
4458,980.00
4459,760.00
4460,480.00
4461,200.00
4462,-40.00
4463,-200.00
4464,-240.00
4465,-120.00
4466,80.00
4467,360.00
4468,660.00
4469,920.00
4470,1060.00
4471,1100.00
4472,1000.00
4473,800.00
4474,520.00
4475,220.00
4476,-20.00
4477,-180.00
4478,-220.00
4479,-120.00
4480,60.00
4481,320.00
4482,620.00
4483,880.00
4484,1040.00
4485,1100.00
4486,1020.00
4487,820.00
4488,540.00
4489,260.00
4490,0.00
4491,-180.00
4492,-220.00
4493,-140.00
4494,40.00
4495,320.00
4496,620.00
4497,880.00
4498,1040.00
4499,1100.00
4500,1020.00
4501,840.00
4502,580.00
4503,280.00
4504,0.00
4505,-160.00
4506,-240.00
4507,-160.00
4508,0.00
4509,280.00
4510,580.00
4511,840.00
4512,1020.00
4513,1100.00
4514,1040.00
4515,860.00
4516,600.00
4517,320.00
4518,40.00
4519,-140.00
4520,-220.00
4521,-160.00
4522,0.00
4523,240.00
4524,540.00
4525,800.00
4526,1000.00
4527,1100.00
4528,1060.00
4529,900.00
4530,640.00
4531,320.00
4532,60.00
4533,-120.00
4534,-220.00
4535,-180.00
4536,-20.00
4537,220.00
4538,520.00
4539,800.00
4540,1000.00
4541,1100.00
4542,1060.00
4543,920.00
4544,660.00
4545,340.00
4546,80.00
4547,-120.00
4548,-220.00
4549,-180.00
4550,-20.00
4551,200.00
4552,480.00
4553,760.00
4554,980.00
4555,1080.00
4556,1060.00
4557,920.00
4558,660.00
4559,380.00
4560,100.00
4561,-100.00
4562,-220.00
4563,-200.00
4564,-60.00
4565,180.00
4566,460.00
4567,740.00
4568,980.00
4569,1100.00
4570,1080.00
4571,940.00
4572,700.00
4573,420.00
4574,120.00
4575,-80.00
4576,-220.00
4577,-220.00
4578,-80.00
4579,140.00
4580,440.00
4581,720.00
4582,960.00
4583,1080.00
4584,1080.00
4585,980.00
4586,740.00
4587,440.00
4588,160.00
4589,-60.00
4590,-200.00
4591,-220.00
4592,-80.00
4593,120.00
4594,400.00
4595,700.00
4596,940.00
4597,1060.00
4598,1080.00
4599,980.00
4600,760.00
4601,480.00
4602,200.00
4603,-40.00
4604,-200.00
4605,-220.00
4606,-120.00
4607,100.00
4608,360.00
4609,660.00
4610,920.00
4611,1080.00
4612,1100.00
4613,980.00
4614,780.00
4615,500.00
4616,220.00
4617,-20.00
4618,-200.00
4619,-220.00
4620,-120.00
4621,60.00
4622,320.00
4623,640.00
4624,900.00
4625,1060.00
4626,1100.00
4627,1000.00
4628,800.00
4629,520.00
4630,240.00
4631,0.00
4632,-180.00
4633,-220.00
4634,-140.00
4635,40.00
4636,320.00
4637,620.00
4638,880.00
4639,1040.00
4640,1100.00
4641,1020.00
4642,820.00
4643,540.00
4644,260.00
4645,0.00
4646,-180.00
4647,-240.00
4648,-160.00
4649,20.00
4650,300.00
4651,600.00
4652,840.00
4653,1020.00
4654,1080.00
4655,1020.00
4656,860.00
4657,600.00
4658,300.00
4659,20.00
4660,-160.00
4661,-220.00
4662,-160.00
4663,0.00
4664,280.00
4665,560.00
4666,840.00
4667,1020.00
4668,1080.00
4669,1040.00
4670,860.00
4671,620.00
4672,320.00
4673,40.00
4674,-160.00
4675,-240.00
4676,-180.00
4677,0.00
4678,240.00
4679,540.00
4680,820.00
4681,1020.00
4682,1100.00
4683,1060.00
4684,900.00
4685,640.00
4686,340.00
4687,60.00
4688,-140.00
4689,-220.00
4690,-180.00
4691,-20.00
4692,220.00
4693,500.00
4694,780.00
4695,980.00
4696,1080.00
4697,1060.00
4698,900.00
4699,660.00
4700,340.00
4701,80.00
4702,-120.00
4703,-220.00
4704,-200.00
4705,-40.00
4706,200.00
4707,480.00
4708,760.00
4709,980.00
4710,1080.00
4711,1080.00
4712,940.00
4713,680.00
4714,380.00
4715,100.00
4716,-100.00
4717,-220.00
4718,-200.00
4719,-60.00
4720,160.00
4721,440.00
4722,720.00
4723,960.00
4724,1080.00
4725,1080.00
4726,940.00
4727,700.00
4728,400.00
4729,140.00
4730,-80.00
4731,-220.00
4732,-200.00
4733,-80.00
4734,140.00
4735,400.00
4736,660.00
4737,900.00
4738,1000.00
4739,1040.00
4740,980.00
4741,820.00
4742,620.00
4743,360.00
4744,120.00
4745,-100.00
4746,-240.00
4747,-300.00
4748,-260.00
4749,-100.00
4750,120.00
4751,380.00
4752,640.00
4753,820.00
4754,940.00
4755,920.00
4756,780.00
4757,560.00
4758,300.00
4759,20.00
4760,-180.00
4761,-300.00
4762,-280.00
4763,-160.00
4764,60.00
4765,340.00
4766,620.00
4767,820.00
4768,920.00
4769,920.00
4770,780.00
4771,560.00
4772,300.00
4773,20.00
4774,-160.00
4775,-280.00
4776,-280.00
4777,-160.00
4778,40.00
4779,320.00
4780,580.00
4781,780.00
4782,920.00
4783,920.00
4784,800.00
4785,580.00
4786,320.00
4787,40.00
4788,-160.00
4789,-280.00
4790,-300.00
4791,-180.00
4792,20.00
4793,300.00
4794,560.00
4795,760.00
4796,900.00
4797,920.00
4798,820.00
4799,620.00
4800,-120.00
4801,-280.00
4802,-300.00
4803,-200.00
4804,0.00
4805,260.00
4806,540.00
4807,760.00
4808,900.00
4809,920.00
4810,820.00
4811,640.00
4812,360.00
4813,100.00
4814,-120.00
4815,-280.00
4816,-320.00
4817,-220.00
4818,-20.00
4819,220.00
4820,500.00
4821,740.00
4822,900.00
4823,940.00
4824,860.00
4825,660.00
4826,400.00
4827,120.00
4828,-100.00
4829,-260.00
4830,-320.00
4831,-220.00
4832,-40.00
4833,200.00
4834,460.00
4835,700.00
4836,860.00
4837,920.00
4838,860.00
4839,680.00
4840,420.00
4841,180.00
4842,-80.00
4843,-240.00
4844,-300.00
4845,-240.00
4846,-60.00
4847,180.00
4848,440.00
4849,680.00
4850,860.00
4851,940.00
4852,880.00
4853,700.00
4854,460.00
4855,200.00
4856,-60.00
4857,-240.00
4858,-320.00
4859,-260.00
4860,-100.00
4861,140.00
4862,400.00
4863,660.00
4864,860.00
4865,940.00
4866,880.00
4867,720.00
4868,480.00
4869,220.00
4870,-40.00
4871,-220.00
4872,-300.00
4873,-280.00
4874,-120.00
4875,120.00
4876,380.00
4877,660.00
4878,840.00
4879,940.00
4880,900.00
4881,740.00
4882,500.00
4883,240.00
4884,-20.00
4885,-220.00
4886,-320.00
4887,-280.00
4888,-120.00
4889,100.00
4890,360.00
4891,640.00
4892,820.00
4893,920.00
4894,900.00
4895,760.00
4896,540.00
4897,280.00
4898,0.00
4899,-200.00
4900,-300.00
4901,-300.00
4902,-160.00
4903,60.00
4904,340.00
4905,620.00
4906,800.00
4907,920.00
4908,900.00
4909,760.00
4910,540.00
4911,280.00
4912,20.00
4913,-160.00
4914,-280.00
4915,-280.00
4916,-160.00
4917,40.00
4918,320.00
4919,580.00
4920,780.00
4921,920.00
4922,900.00
4923,780.00
4924,580.00
4925,320.00
4926,40.00
4927,-160.00
4928,-300.00
4929,-300.00
4930,-180.00
4931,0.00
4932,280.00
4933,540.00
4934,760.00
4935,900.00
4936,920.00
4937,820.00
4938,620.00
4939,340.00
4940,80.00
4941,-120.00
4942,-280.00
4943,-300.00
4944,-220.00
4945,0.00
4946,240.00
4947,520.00
4948,760.00
4949,900.00
4950,920.00
4951,840.00
4952,620.00
4953,360.00
4954,80.00
4955,-140.00
4956,-280.00
4957,-300.00
4958,-220.00
4959,-20.00
4960,220.00
4961,480.00
4962,720.00
4963,900.00
4964,940.00
4965,860.00
4966,660.00
4967,380.00
4968,120.00
4969,-100.00
4970,-260.00
4971,-300.00
4972,-220.00
4973,-40.00
4974,200.00
4975,480.00
4976,720.00
4977,880.00
4978,920.00
4979,840.00
4980,660.00
4981,420.00
4982,160.00
4983,-80.00
4984,-240.00
4985,-300.00
4986,-240.00
4987,-60.00
4988,180.00
4989,440.00
4990,680.00
4991,860.00
4992,940.00
4993,860.00
4994,680.00
4995,440.00
4996,180.00
4997,-60.00
4998,-240.00
4999,-320.00
5000,-260.00
5001,-100.00
5002,140.00
5003,400.00
5004,660.00
5005,860.00
5006,940.00
5007,900.00
5008,720.00
5009,480.00
5010,220.00
5011,-40.00
5012,-220.00
5013,-320.00
5014,-280.00
5015,-120.00
5016,120.00
5017,380.00
5018,640.00
5019,840.00
5020,920.00
5021,880.00
5022,720.00
5023,500.00
5024,240.00
5025,-20.00
5026,-220.00
5027,-320.00
5028,-280.00
5029,-120.00
5030,100.00
5031,360.00
5032,620.00
5033,820.00
5034,920.00
5035,900.00
5036,760.00
5037,540.00
5038,260.00
5039,0.00
5040,-200.00
5041,-300.00
5042,-300.00
5043,-160.00
5044,60.00
5045,320.00
5046,600.00
5047,800.00
5048,920.00
5049,920.00
5050,780.00
5051,560.00
5052,300.00
5053,20.00
5054,-180.00
5055,-300.00
5056,-300.00
5057,-160.00
5058,40.00
5059,320.00
5060,580.00
5061,800.00
5062,920.00
5063,900.00
5064,780.00
5065,580.00
5066,320.00
5067,40.00
5068,-160.00
5069,-280.00
5070,-300.00
5071,-180.00
5072,20.00
5073,280.00
5074,540.00
5075,760.00
5076,900.00
5077,920.00
5078,800.00
5079,620.00
5080,340.00
5081,80.00
5082,-140.00
5083,-280.00
5084,-300.00
5085,-200.00
5086,0.00
5087,280.00
5088,540.00
5089,760.00
5090,900.00
5091,920.00
5092,820.00
5093,620.00
5094,360.00
5095,100.00
5096,-120.00
5097,-280.00
5098,-300.00
5099,-220.00
5100,-20.00
5101,240.00
5102,500.00
5103,740.00
5104,900.00
5105,940.00
5106,840.00
5107,660.00
5108,380.00
5109,120.00
5110,-120.00
5111,-260.00
5112,-320.00
5113,-240.00
5114,-40.00
5115,220.00
5116,480.00
5117,700.00
5118,880.00
5119,920.00
5120,840.00
5121,660.00
5122,420.00
5123,160.00
5124,-80.00
5125,-260.00
5126,-300.00
5127,-240.00
5128,-60.00
5129,180.00
5130,440.00
5131,700.00
5132,860.00
5133,940.00
5134,860.00
5135,680.00
5136,440.00
5137,160.00
5138,-80.00
5139,-240.00
5140,-320.00
5141,-280.00
5142,-100.00
5143,140.00
5144,420.00
5145,680.00
5146,880.00
5147,960.00
5148,880.00
5149,700.00
5150,460.00
5151,260.00
5152,80.00
5153,40.00
5154,60.00
5155,160.00
5156,260.00
5157,300.00
5158,260.00
5159,120.00
5160,-40.00
5161,-200.00
5162,-260.00
5163,-220.00
5164,-40.00
5165,180.00
5166,440.00
5167,660.00
5168,760.00
5169,760.00
5170,620.00
5171,380.00
5172,100.00
5173,-180.00
5174,-380.00
5175,-480.00
5176,-460.00
5177,-320.00
5178,-80.00
5179,180.00
5180,440.00
5181,660.00
5182,740.00
5183,720.00
5184,600.00
5185,360.00
5186,100.00
5187,-160.00
5188,-340.00
5189,-460.00
5190,-460.00
5191,-340.00
5192,-120.00
5193,140.00
5194,420.00
5195,660.00
5196,760.00
5197,740.00
5198,620.00
5199,400.00
5200,140.00
5201,-120.00
5202,-340.00
5203,-460.00
5204,-460.00
5205,-340.00
5206,-140.00
5207,120.00
5208,400.00
5209,620.00
5210,740.00
5211,740.00
5212,640.00
5213,420.00
5214,160.00
5215,-100.00
5216,-340.00
5217,-460.00
5218,-460.00
5219,-360.00
5220,-160.00
5221,100.00
5222,360.00
5223,600.00
5224,740.00
5225,760.00
5226,660.00
5227,440.00
5228,180.00
5229,-80.00
5230,-320.00
5231,-440.00
5232,-480.00
5233,-380.00
5234,-180.00
5235,60.00
5236,340.00
5237,580.00
5238,720.00
5239,760.00
5240,660.00
5241,480.00
5242,220.00
5243,-40.00
5244,-280.00
5245,-420.00
5246,-460.00
5247,-380.00
5248,-220.00
5249,40.00
5250,320.00
5251,560.00
5252,700.00
5253,760.00
5254,680.00
5255,500.00
5256,240.00
5257,-20.00
5258,-280.00
5259,-420.00
5260,-480.00
5261,-400.00
5262,-240.00
5263,20.00
5264,300.00
5265,560.00
5266,700.00
5267,760.00
5268,680.00
5269,520.00
5270,280.00
5271,0.00
5272,-260.00
5273,-400.00
5274,-460.00
5275,-400.00
5276,-240.00
5277,0.00
5278,280.00
5279,520.00
5280,680.00
5281,760.00
5282,700.00
5283,540.00
5284,300.00
5285,0.00
5286,-240.00
5287,-400.00
5288,-460.00
5289,-400.00
5290,-260.00
5291,-20.00
5292,240.00
5293,500.00
5294,680.00
5295,760.00
5296,720.00
5297,560.00
5298,320.00
5299,40.00
5300,-220.00
5301,-380.00
5302,-480.00
5303,-440.00
5304,-300.00
5305,-40.00
5306,220.00
5307,480.00
5308,660.00
5309,760.00
5310,720.00
5311,580.00
5312,340.00
5313,60.00
5314,-180.00
5315,-360.00
5316,-460.00
5317,-440.00
5318,-300.00
5319,-60.00
5320,200.00
5321,440.00
5322,660.00
5323,760.00
5324,740.00
5325,600.00
5326,360.00
5327,100.00
5328,-160.00
5329,-360.00
5330,-460.00
5331,-440.00
5332,-340.00
5333,-100.00
5334,180.00
5335,440.00
5336,660.00
5337,760.00
5338,740.00
5339,620.00
5340,400.00
5341,140.00
5342,-120.00
5343,-340.00
5344,-460.00
5345,-460.00
5346,-340.00
5347,-120.00
5348,140.00
5349,400.00
5350,620.00
5351,740.00
5352,740.00
5353,640.00
5354,420.00
5355,160.00
5356,-100.00
5357,-340.00
5358,-460.00
5359,-460.00
5360,-340.00
5361,-140.00
5362,120.00
5363,380.00
5364,620.00
5365,740.00
5366,760.00
5367,660.00
5368,440.00
5369,180.00
5370,-80.00
5371,-320.00
5372,-440.00
5373,-460.00
5374,-360.00
5375,-180.00
5376,80.00
5377,360.00
5378,600.00
5379,720.00
5380,740.00
5381,660.00
5382,460.00
5383,220.00
5384,-60.00
5385,-300.00
5386,-440.00
5387,-460.00
5388,-380.00
5389,-200.00
5390,60.00
5391,320.00
5392,580.00
5393,720.00
5394,760.00
5395,660.00
5396,480.00
5397,240.00
5398,-40.00
5399,-280.00
5400,-400.00
5401,-220.00
5402,40.00
5403,320.00
5404,540.00
5405,700.00
5406,760.00
5407,700.00
5408,520.00
5409,280.00
5410,0.00
5411,-260.00
5412,-420.00
5413,-480.00
5414,-400.00
5415,-240.00
5416,0.00
5417,300.00
5418,540.00
5419,700.00
5420,760.00
5421,700.00
5422,520.00
5423,280.00
5424,0.00
5425,-240.00
5426,-400.00
5427,-480.00
5428,-420.00
5429,-260.00
5430,0.00
5431,260.00
5432,500.00
5433,680.00
5434,760.00
5435,720.00
5436,560.00
5437,320.00
5438,40.00
5439,-220.00
5440,-380.00
5441,-480.00
5442,-440.00
5443,-280.00
5444,-40.00
5445,240.00
5446,480.00
5447,660.00
5448,760.00
5449,720.00
5450,580.00
5451,320.00
5452,60.00
5453,-180.00
5454,-360.00
5455,-460.00
5456,-440.00
5457,-300.00
5458,-60.00
5459,200.00
5460,460.00
5461,660.00
5462,740.00
5463,720.00
5464,600.00
5465,360.00
5466,80.00
5467,-180.00
5468,-360.00
5469,-480.00
5470,-460.00
5471,-320.00
5472,-80.00
5473,180.00
5474,440.00
5475,660.00
5476,740.00
5477,740.00
5478,620.00
5479,380.00
5480,120.00
5481,-120.00
5482,-340.00
5483,-460.00
5484,-440.00
5485,-340.00
5486,-120.00
5487,140.00
5488,400.00
5489,620.00
5490,740.00
5491,740.00
5492,640.00
5493,400.00
5494,140.00
5495,-120.00
5496,-340.00
5497,-460.00
5498,-460.00
5499,-340.00
5500,-140.00
5501,120.00
5502,380.00
5503,620.00
5504,740.00
5505,740.00
5506,660.00
5507,440.00
5508,180.00
5509,-80.00
5510,-320.00
5511,-440.00
5512,-460.00
5513,-360.00
5514,-180.00
5515,80.00
5516,360.00
5517,600.00
5518,720.00
5519,760.00
5520,660.00
5521,460.00
5522,200.00
5523,-60.00
5524,-300.00
5525,-440.00
5526,-460.00
5527,-360.00
5528,-180.00
5529,80.00
5530,340.00
5531,580.00
5532,720.00
5533,760.00
5534,660.00
5535,480.00
5536,220.00
5537,-40.00
5538,-300.00
5539,-440.00
5540,-480.00
5541,-380.00
5542,-220.00
5543,40.00
5544,320.00
5545,560.00
5546,700.00
5547,760.00
5548,680.00
5549,520.00
5550,260.00
5551,-20.00
5552,-260.00
5553,-420.00
5554,-480.00
5555,-420.00
5556,-240.00
5557,0.00
5558,280.00
5559,520.00
5560,680.00
5561,760.00
5562,700.00
5563,520.00
5564,280.00
5565,-20.00
5566,-280.00
5567,-420.00
5568,-460.00
5569,-340.00
5570,-120.00
5571,160.00
5572,440.00
5573,620.00
5574,660.00
5575,580.00
5576,340.00
5577,40.00
5578,-260.00
5579,-500.00
5580,-640.00
5581,-640.00
5582,-480.00
5583,-260.00
5584,20.00
5585,320.00
5586,560.00
5587,660.00
5588,660.00
5589,540.00
5590,300.00
5591,20.00
5592,-260.00
5593,-480.00
5594,-620.00
5595,-620.00
5596,-500.00
5597,-280.00
5598,0.00
5599,300.00
5600,540.00
5601,660.00
5602,660.00
5603,560.00
5604,320.00
5605,40.00
5606,-240.00
5607,-480.00
5608,-620.00
5609,-640.00
5610,-520.00
5611,-320.00
5612,-20.00
5613,260.00
5614,500.00
5615,660.00
5616,660.00
5617,580.00
5618,340.00
5619,60.00
5620,-220.00
5621,-440.00
5622,-600.00
5623,-620.00
5624,-520.00
5625,-340.00
5626,-40.00
5627,240.00
5628,480.00
5629,660.00
5630,680.00
5631,580.00
5632,360.00
5633,80.00
5634,-200.00
5635,-440.00
5636,-600.00
5637,-640.00
5638,-560.00
5639,-340.00
5640,-60.00
5641,220.00
5642,460.00
5643,640.00
5644,680.00
5645,600.00
5646,400.00
5647,120.00
5648,-160.00
5649,-420.00
5650,-600.00
5651,-660.00
5652,-580.00
5653,-360.00
5654,-100.00
5655,180.00
5656,440.00
5657,620.00
5658,680.00
5659,620.00
5660,420.00
5661,140.00
5662,-140.00
5663,-400.00
5664,-580.00
5665,-640.00
5666,-580.00
5667,-380.00
5668,-120.00
5669,160.00
5670,420.00
5671,620.00
5672,680.00
5673,620.00
5674,440.00
5675,180.00
5676,-120.00
5677,-360.00
5678,-560.00
5679,-640.00
5680,-600.00
5681,-420.00
5682,-160.00
5683,120.00
5684,380.00
5685,600.00
5686,660.00
5687,640.00
5688,460.00
5689,220.00
5690,-60.00
5691,-340.00
5692,-540.00
5693,-640.00
5694,-600.00
5695,-440.00
5696,-200.00
5697,80.00
5698,360.00
5699,580.00
5700,660.00
5701,660.00
5702,480.00
5703,240.00
5704,-40.00
5705,-340.00
5706,-540.00
5707,-640.00
5708,-620.00
5709,-460.00
5710,-220.00
5711,60.00
5712,340.00
5713,560.00
5714,660.00
5715,660.00
5716,500.00
5717,280.00
5718,0.00
5719,-300.00
5720,-520.00
5721,-640.00
5722,-620.00
5723,-480.00
5724,-240.00
5725,40.00
5726,320.00
5727,560.00
5728,660.00
5729,660.00
5730,520.00
5731,300.00
5732,0.00
5733,-280.00
5734,-500.00
5735,-620.00
5736,-640.00
5737,-500.00
5738,-280.00
5739,0.00
5740,320.00
5741,540.00
5742,660.00
5743,660.00
5744,540.00
5745,320.00
5746,20.00
5747,-260.00
5748,-480.00
5749,-620.00
5750,-640.00
5751,-520.00
5752,-300.00
5753,-20.00
5754,260.00
5755,520.00
5756,660.00
5757,660.00
5758,560.00
5759,340.00
5760,60.00
5761,-220.00
5762,-460.00
5763,-620.00
5764,-640.00
5765,-540.00
5766,-340.00
5767,-40.00
5768,240.00
5769,500.00
5770,640.00
5771,660.00
5772,580.00
5773,360.00
5774,80.00
5775,-200.00
5776,-440.00
5777,-600.00
5778,-660.00
5779,-560.00
5780,-340.00
5781,-80.00
5782,220.00
5783,460.00
5784,640.00
5785,680.00
5786,600.00
5787,400.00
5788,120.00
5789,-160.00
5790,-420.00
5791,-600.00
5792,-660.00
5793,-580.00
5794,-380.00
5795,-100.00
5796,180.00
5797,440.00
5798,620.00
5799,660.00
5800,620.00
5801,400.00
5802,140.00
5803,-160.00
5804,-400.00
5805,-580.00
5806,-660.00
5807,-580.00
5808,-380.00
5809,-140.00
5810,160.00
5811,420.00
5812,620.00
5813,680.00
5814,640.00
5815,440.00
5816,180.00
5817,-100.00
5818,-380.00
5819,-580.00
5820,-640.00
5821,-600.00
5822,-420.00
5823,-160.00
5824,120.00
5825,400.00
5826,600.00
5827,660.00
5828,640.00
5829,460.00
5830,220.00
5831,-80.00
5832,-340.00
5833,-560.00
5834,-640.00
5835,-600.00
5836,-440.00
5837,-200.00
5838,100.00
5839,360.00
5840,580.00
5841,660.00
5842,640.00
5843,480.00
5844,240.00
5845,-40.00
5846,-340.00
5847,-540.00
5848,-640.00
5849,-620.00
5850,-460.00
5851,-240.00
5852,60.00
5853,340.00
5854,580.00
5855,680.00
5856,660.00
5857,500.00
5858,260.00
5859,-20.00
5860,-320.00
5861,-520.00
5862,-640.00
5863,-620.00
5864,-480.00
5865,-240.00
5866,40.00
5867,320.00
5868,540.00
5869,660.00
5870,660.00
5871,520.00
5872,280.00
5873,0.00
5874,-300.00
5875,-500.00
5876,-640.00
5877,-620.00
5878,-500.00
5879,-280.00
5880,0.00
5881,320.00
5882,540.00
5883,660.00
5884,660.00
5885,540.00
5886,320.00
5887,20.00
5888,-260.00
5889,-480.00
5890,-640.00
5891,-640.00
5892,-520.00
5893,-300.00
5894,0.00
5895,280.00
5896,520.00
5897,660.00
5898,660.00
5899,560.00
5900,320.00
5901,60.00
5902,-240.00
5903,-460.00
5904,-620.00
5905,-640.00
5906,-520.00
5907,-320.00
5908,-40.00
5909,260.00
5910,500.00
5911,660.00
5912,660.00
5913,580.00
5914,360.00
5915,80.00
5916,-220.00
5917,-460.00
5918,-600.00
5919,-640.00
5920,-540.00
5921,-340.00
5922,-60.00
5923,220.00
5924,460.00
5925,640.00
5926,660.00
5927,600.00
5928,400.00
5929,120.00
5930,-160.00
5931,-420.00
5932,-600.00
5933,-640.00
5934,-560.00
5935,-360.00
5936,-80.00
5937,200.00
5938,460.00
5939,640.00
5940,660.00
5941,600.00
5942,400.00
5943,140.00
5944,-140.00
5945,-400.00
5946,-580.00
5947,-640.00
5948,-580.00
5949,-380.00
5950,-120.00
5951,180.00
5952,440.00
5953,620.00
5954,680.00
5955,620.00
5956,420.00
5957,180.00
5958,-140.00
5959,-380.00
5960,-580.00
5961,-640.00
5962,-600.00
5963,-420.00
5964,-160.00
5965,140.00
5966,400.00
5967,620.00
5968,660.00
5969,640.00
5970,460.00
5971,200.00
5972,-80.00
5973,-360.00
5974,-580.00
5975,-680.00
5976,-620.00
5977,-440.00
5978,-180.00
5979,120.00
5980,360.00
5981,560.00
5982,620.00
5983,560.00
5984,420.00
5985,260.00
5986,80.00
5987,-60.00
5988,-160.00
5989,-240.00
5990,-320.00
5991,-380.00
5992,-480.00
5993,-540.00
5994,-540.00
5995,-480.00
5996,-380.00
5997,-220.00
5998,-40.00
5999,140.00
6000,280.00
6001,120.00
6002,-60.00
6003,-280.00
6004,-480.00
6005,-620.00
6006,-660.00
6007,-600.00
6008,-460.00
6009,-280.00
6010,-60.00
6011,120.00
6012,260.00
6013,300.00
6014,260.00
6015,120.00
6016,-60.00
6017,-280.00
6018,-460.00
6019,-600.00
6020,-640.00
6021,-600.00
6022,-460.00
6023,-280.00
6024,-60.00
6025,100.00
6026,260.00
6027,300.00
6028,260.00
6029,120.00
6030,-60.00
6031,-280.00
6032,-460.00
6033,-600.00
6034,-660.00
6035,-600.00
6036,-480.00
6037,-320.00
6038,-100.00
6039,100.00
6040,240.00
6041,320.00
6042,280.00
6043,160.00
6044,-20.00
6045,-240.00
6046,-440.00
6047,-600.00
6048,-660.00
6049,-620.00
6050,-500.00
6051,-320.00
6052,-100.00
6053,80.00
6054,240.00
6055,300.00
6056,260.00
6057,140.00
6058,-20.00
6059,-240.00
6060,-420.00
6061,-580.00
6062,-640.00
6063,-620.00
6064,-500.00
6065,-340.00
6066,-120.00
6067,60.00
6068,220.00
6069,300.00
6070,280.00
6071,160.00
6072,0.00
6073,-200.00
6074,-400.00
6075,-560.00
6076,-660.00
6077,-640.00
6078,-540.00
6079,-340.00
6080,-140.00
6081,40.00
6082,200.00
6083,300.00
6084,280.00
6085,180.00
6086,0.00
6087,-180.00
6088,-360.00
6089,-540.00
6090,-640.00
6091,-640.00
6092,-540.00
6093,-360.00
6094,-180.00
6095,20.00
6096,200.00
6097,300.00
6098,300.00
6099,200.00
6100,20.00
6101,-180.00
6102,-360.00
6103,-540.00
6104,-640.00
6105,-640.00
6106,-560.00
6107,-400.00
6108,-200.00
6109,0.00
6110,180.00
6111,280.00
6112,300.00
6113,220.00
6114,40.00
6115,-140.00
6116,-340.00
6117,-520.00
6118,-620.00
6119,-640.00
6120,-580.00
6121,-400.00
6122,-220.00
6123,0.00
6124,160.00
6125,280.00
6126,300.00
6127,220.00
6128,60.00
6129,-120.00
6130,-340.00
6131,-500.00
6132,-620.00
6133,-640.00
6134,-580.00
6135,-420.00
6136,-240.00
6137,-20.00
6138,160.00
6139,280.00
6140,300.00
6141,240.00
6142,80.00
6143,-100.00
6144,-320.00
6145,-500.00
6146,-620.00
6147,-660.00
6148,-600.00
6149,-460.00
6150,-260.00
6151,-40.00
6152,120.00
6153,260.00
6154,300.00
6155,240.00
6156,100.00
6157,-80.00
6158,-300.00
6159,-480.00
6160,-600.00
6161,-640.00
6162,-580.00
6163,-440.00
6164,-280.00
6165,-60.00
6166,120.00
6167,240.00
6168,300.00
6169,240.00
6170,120.00
6171,-60.00
6172,-280.00
6173,-460.00
6174,-600.00
6175,-640.00
6176,-620.00
6177,-480.00
6178,-300.00
6179,-80.00
6180,100.00
6181,240.00
6182,300.00
6183,260.00
6184,140.00
6185,-40.00
6186,-260.00
6187,-440.00
6188,-580.00
6189,-660.00
6190,-620.00
6191,-500.00
6192,-320.00
6193,-100.00
6194,80.00
6195,240.00
6196,300.00
6197,260.00
6198,140.00
6199,-20.00
6200,-260.00
6201,-440.00
6202,-580.00
6203,-640.00
6204,-620.00
6205,-500.00
6206,-340.00
6207,-120.00
6208,80.00
6209,240.00
6210,300.00
6211,280.00
6212,160.00
6213,0.00
6214,-220.00
6215,-400.00
6216,-560.00
6217,-660.00
6218,-640.00
6219,-520.00
6220,-340.00
6221,-140.00
6222,40.00
6223,200.00
6224,300.00
6225,280.00
6226,180.00
6227,0.00
6228,-200.00
6229,-380.00
6230,-540.00
6231,-620.00
6232,-620.00
6233,-540.00
6234,-360.00
6235,-180.00
6236,20.00
6237,180.00
6238,300.00
6239,300.00
6240,200.00
6241,20.00
6242,-180.00
6243,-380.00
6244,-540.00
6245,-640.00
6246,-660.00
6247,-560.00
6248,-380.00
6249,-180.00
6250,0.00
6251,180.00
6252,280.00
6253,280.00
6254,200.00
6255,40.00
6256,-140.00
6257,-340.00
6258,-520.00
6259,-620.00
6260,-660.00
6261,-580.00
6262,-400.00
6263,-220.00
6264,0.00
6265,160.00
6266,280.00
6267,300.00
6268,220.00
6269,60.00
6270,-140.00
6271,-340.00
6272,-520.00
6273,-640.00
6274,-660.00
6275,-580.00
6276,-420.00
6277,-240.00
6278,-20.00
6279,160.00
6280,280.00
6281,300.00
6282,240.00
6283,80.00
6284,-120.00
6285,-320.00
6286,-500.00
6287,-620.00
6288,-660.00
6289,-580.00
6290,-440.00
6291,-260.00
6292,-40.00
6293,140.00
6294,260.00
6295,300.00
6296,240.00
6297,100.00
6298,-80.00
6299,-300.00
6300,-480.00
6301,-600.00
6302,-640.00
6303,-600.00
6304,-460.00
6305,-280.00
6306,-60.00
6307,120.00
6308,260.00
6309,320.00
6310,260.00
6311,100.00
6312,-80.00
6313,-300.00
6314,-460.00
6315,-600.00
6316,-660.00
6317,-600.00
6318,-480.00
6319,-300.00
6320,-100.00
6321,100.00
6322,240.00
6323,300.00
6324,260.00
6325,140.00
6326,-40.00
6327,-260.00
6328,-440.00
6329,-600.00
6330,-660.00
6331,-620.00
6332,-500.00
6333,-320.00
6334,-120.00
6335,80.00
6336,240.00
6337,300.00
6338,260.00
6339,140.00
6340,-40.00
6341,-260.00
6342,-440.00
6343,-580.00
6344,-660.00
6345,-620.00
6346,-500.00
6347,-340.00
6348,-120.00
6349,60.00
6350,220.00
6351,300.00
6352,280.00
6353,160.00
6354,0.00
6355,-220.00
6356,-400.00
6357,-560.00
6358,-660.00
6359,-640.00
6360,-540.00
6361,-360.00
6362,-160.00
6363,40.00
6364,220.00
6365,300.00
6366,280.00
6367,180.00
6368,0.00
6369,-200.00
6370,-400.00
6371,-560.00
6372,-640.00
6373,-620.00
6374,-540.00
6375,-360.00
6376,-180.00
6377,20.00
6378,200.00
6379,280.00
6380,280.00
6381,180.00
6382,0.00
6383,-200.00
6384,-380.00
6385,-540.00
6386,-640.00
6387,-640.00
6388,-560.00
6389,-400.00
6390,-200.00
6391,0.00
6392,200.00
6393,300.00
6394,300.00
6395,200.00
6396,20.00
6397,-160.00
6398,-340.00
6399,-480.00
6400,-520.00
6401,-500.00
6402,-440.00
6403,-340.00
6404,-260.00
6405,-200.00
6406,-180.00
6407,-180.00
6408,-220.00
6409,-260.00
6410,-280.00
6411,-300.00
6412,-320.00
6413,-320.00
6414,-300.00
6415,-300.00
6416,-300.00
6417,-280.00
6418,-280.00
6419,-300.00
6420,-300.00
6421,-300.00
6422,-300.00
6423,-300.00
6424,-300.00
6425,-300.00
6426,-320.00
6427,-320.00
6428,-320.00
6429,-300.00
6430,-300.00
6431,-300.00
6432,-300.00
6433,-300.00
6434,-320.00
6435,-320.00
6436,-320.00
6437,-320.00
6438,-300.00
6439,-300.00
6440,-300.00
6441,-300.00
6442,-300.00
6443,-300.00
6444,-300.00
6445,-320.00
6446,-320.00
6447,-300.00
6448,-300.00
6449,-300.00
6450,-300.00
6451,-300.00
6452,-320.00
6453,-320.00
6454,-320.00
6455,-320.00
6456,-320.00
6457,-320.00
6458,-300.00
6459,-300.00
6460,-300.00
6461,-300.00
6462,-320.00
6463,-320.00
6464,-300.00
6465,-300.00
6466,-300.00
6467,-300.00
6468,-300.00
6469,-300.00
6470,-300.00
6471,-300.00
6472,-320.00
6473,-320.00
6474,-320.00
6475,-320.00
6476,-300.00
6477,-300.00
6478,-300.00
6479,-300.00
6480,-320.00
6481,-320.00
6482,-320.00
6483,-320.00
6484,-320.00
6485,-300.00
6486,-300.00
6487,-300.00
6488,-300.00
6489,-300.00
6490,-300.00
6491,-320.00
6492,-320.00
6493,-300.00
6494,-300.00
6495,-300.00
6496,-300.00
6497,-300.00
6498,-300.00
6499,-320.00
6500,-320.00
6501,-320.00
6502,-320.00
6503,-320.00
6504,-300.00
6505,-300.00
6506,-300.00
6507,-300.00
6508,-300.00
6509,-320.00
6510,-320.00
6511,-320.00
6512,-300.00
6513,-300.00
6514,-300.00
6515,-300.00
6516,-300.00
6517,-300.00
6518,-320.00
6519,-320.00
6520,-320.00
6521,-320.00
6522,-320.00
6523,-300.00
6524,-300.00
6525,-300.00
6526,-320.00
6527,-320.00
6528,-320.00
6529,-320.00
6530,-320.00
6531,-320.00
6532,-300.00
6533,-300.00
6534,-300.00
6535,-300.00
6536,-300.00
6537,-300.00
6538,-320.00
6539,-300.00
6540,-300.00
6541,-300.00
6542,-300.00
6543,-300.00
6544,-300.00
6545,-320.00
6546,-320.00
6547,-320.00
6548,-320.00
6549,-320.00
6550,-320.00
6551,-320.00
6552,-300.00
6553,-300.00
6554,-320.00
6555,-320.00
6556,-320.00
6557,-320.00
6558,-300.00
6559,-320.00
6560,-300.00
6561,-300.00
6562,-300.00
6563,-300.00
6564,-320.00
6565,-320.00
6566,-320.00
6567,-320.00
6568,-320.00
6569,-320.00
6570,-300.00
6571,-300.00
6572,-300.00
6573,-320.00
6574,-320.00
6575,-320.00
6576,-320.00
6577,-320.00
6578,-320.00
6579,-320.00
6580,-300.00
6581,-300.00
6582,-300.00
6583,-300.00
6584,-320.00
6585,-320.00
6586,-300.00
6587,-300.00
6588,-300.00
6589,-300.00
6590,-300.00
6591,-300.00
6592,-320.00
6593,-320.00
6594,-320.00
6595,-320.00
6596,-300.00
6597,-300.00
6598,-300.00
6599,-300.00
6600,-320.00
6601,-320.00
6602,-300.00
6603,-300.00
6604,-300.00
6605,-300.00
6606,-300.00
6607,-300.00
6608,-300.00
6609,-320.00
6610,-320.00
6611,-320.00
6612,-320.00
6613,-300.00
6614,-300.00
6615,-300.00
6616,-300.00
6617,-320.00
6618,-320.00
6619,-320.00
6620,-320.00
6621,-320.00
6622,-320.00
6623,-300.00
6624,-300.00
6625,-300.00
6626,-300.00
6627,-300.00
6628,-320.00
6629,-320.00
6630,-320.00
6631,-300.00
6632,-300.00
6633,-300.00
6634,-300.00
6635,-300.00
6636,-300.00
6637,-320.00
6638,-320.00
6639,-320.00
6640,-320.00
6641,-300.00
6642,-300.00
6643,-300.00
6644,-300.00
6645,-320.00
6646,-320.00
6647,-320.00
6648,-320.00
6649,-320.00
6650,-300.00
6651,-300.00
6652,-300.00
6653,-300.00
6654,-300.00
6655,-300.00
6656,-300.00
6657,-320.00
6658,-320.00
6659,-320.00
6660,-320.00
6661,-300.00
6662,-300.00
6663,-320.00
6664,-320.00
6665,-320.00
6666,-320.00
6667,-320.00
6668,-320.00
6669,-320.00
6670,-300.00
6671,-300.00
6672,-320.00
6673,-320.00
6674,-320.00
6675,-320.00
6676,-320.00
6677,-300.00
6678,-300.00
6679,-300.00
6680,-300.00
6681,-300.00
6682,-300.00
6683,-320.00
6684,-320.00
6685,-320.00
6686,-320.00
6687,-300.00
6688,-300.00
6689,-300.00
6690,-300.00
6691,-320.00
6692,-320.00
6693,-320.00
6694,-320.00
6695,-320.00
6696,-300.00
6697,-300.00
6698,-300.00
6699,-300.00
6700,-300.00
6701,-300.00
6702,-320.00
6703,-320.00
6704,-320.00
6705,-300.00
6706,-300.00
6707,-300.00
6708,-300.00
6709,-320.00
6710,-320.00
6711,-320.00
6712,-320.00
6713,-320.00
6714,-320.00
6715,-300.00
6716,-300.00
6717,-320.00
6718,-320.00
6719,-320.00
6720,-320.00
6721,-320.00
6722,-320.00
6723,-320.00
6724,-300.00
6725,-300.00
6726,-300.00
6727,-300.00
6728,-300.00
6729,-320.00
6730,-320.00
6731,-320.00
6732,-320.00
6733,-320.00
6734,-300.00
6735,-300.00
6736,-300.00
6737,-300.00
6738,-320.00
6739,-320.00
6740,-320.00
6741,-320.00
6742,-320.00
6743,-300.00
6744,-300.00
6745,-300.00
6746,-300.00
6747,-300.00
6748,-320.00
6749,-320.00
6750,-320.00
6751,-300.00
6752,-300.00
6753,-300.00
6754,-300.00
6755,-300.00
6756,-320.00
6757,-320.00
6758,-320.00
6759,-320.00
6760,-320.00
6761,-300.00
6762,-300.00
6763,-300.00
6764,-320.00
6765,-320.00
6766,-320.00
6767,-320.00
6768,-320.00
6769,-320.00
6770,-300.00
6771,-300.00
6772,-300.00
6773,-300.00
6774,-300.00
6775,-300.00
6776,-320.00
6777,-320.00
6778,-320.00
6779,-320.00
6780,-320.00
6781,-300.00
6782,-300.00
6783,-300.00
6784,-320.00
6785,-320.00
6786,-320.00
6787,-320.00
6788,-320.00
6789,-300.00
6790,-300.00
6791,-300.00
6792,-300.00
6793,-300.00
6794,-300.00
6795,-320.00
6796,-320.00
6797,-300.00
6798,-300.00
6799,-300.00
6800,-300.00
6801,-300.00
6802,-320.00
6803,-320.00
6804,-320.00
6805,-320.00
6806,-320.00
6807,-300.00
6808,-300.00
6809,-300.00
6810,-300.00
6811,-320.00
6812,-320.00
6813,-320.00
6814,-320.00
6815,-320.00
6816,-300.00
6817,-300.00
6818,-300.00
6819,-300.00
6820,-300.00
6821,-300.00
6822,-320.00
6823,-320.00
6824,-320.00
6825,-300.00
6826,-300.00
6827,-300.00
6828,-300.00
6829,-300.00
6830,-320.00
6831,-320.00
6832,-320.00
6833,-320.00
6834,-320.00
6835,-300.00
6836,-300.00
6837,-300.00
6838,-300.00
6839,-300.00
6840,-320.00
6841,-300.00
6842,-300.00
6843,-300.00
6844,-300.00
6845,-300.00
6846,-300.00
6847,-300.00
6848,-300.00
6849,-320.00
6850,-320.00
6851,-320.00
6852,-320.00
6853,-320.00
6854,-300.00
6855,-300.00
6856,-300.00
6857,-300.00
6858,-320.00
6859,-320.00
6860,-320.00
6861,-320.00
6862,-320.00
6863,-300.00
6864,-300.00
6865,-300.00
6866,-300.00
6867,-300.00
6868,-320.00
6869,-320.00
6870,-340.00
6871,-340.00
6872,-380.00
6873,-440.00
6874,-500.00
6875,-560.00
6876,-640.00
6877,-700.00
6878,-760.00
6879,-820.00
6880,-860.00
6881,-880.00
6882,-900.00
6883,-900.00
6884,-900.00
6885,-900.00
6886,-900.00
6887,-880.00
6888,-900.00
6889,-900.00
6890,-900.00
6891,-900.00
6892,-880.00
6893,-880.00
6894,-900.00
6895,-900.00
6896,-900.00
6897,-900.00
6898,-900.00
6899,-900.00
6900,-900.00
6901,-900.00
6902,-900.00
6903,-900.00
6904,-900.00
6905,-900.00
6906,-920.00
6907,-900.00
6908,-900.00
6909,-880.00
6910,-880.00
6911,-880.00
6912,-900.00
6913,-900.00
6914,-900.00
6915,-900.00
6916,-900.00
6917,-900.00
6918,-900.00
6919,-900.00
6920,-900.00
6921,-900.00
6922,-900.00
6923,-900.00
6924,-900.00
6925,-900.00
6926,-900.00
6927,-900.00
6928,-900.00
6929,-900.00
6930,-900.00
6931,-900.00
6932,-900.00
6933,-900.00
6934,-900.00
6935,-900.00
6936,-900.00
6937,-900.00
6938,-880.00
6939,-900.00
6940,-900.00
6941,-900.00
6942,-900.00
6943,-900.00
6944,-900.00
6945,-900.00
6946,-900.00
6947,-880.00
6948,-900.00
6949,-900.00
6950,-900.00
6951,-900.00
6952,-900.00
6953,-900.00
6954,-900.00
6955,-900.00
6956,-900.00
6957,-900.00
6958,-900.00
6959,-900.00
6960,-900.00
6961,-900.00
6962,-900.00
6963,-900.00
6964,-900.00
6965,-900.00
6966,-900.00
6967,-900.00
6968,-900.00
6969,-900.00
6970,-900.00
6971,-900.00
6972,-900.00
6973,-900.00
6974,-900.00
6975,-900.00
6976,-900.00
6977,-900.00
6978,-900.00
6979,-900.00
6980,-900.00
6981,-900.00
6982,-900.00
6983,-900.00
6984,-880.00
6985,-880.00
6986,-900.00
6987,-900.00
6988,-900.00
6989,-900.00
6990,-900.00
6991,-900.00
6992,-900.00
6993,-900.00
6994,-900.00
6995,-900.00
6996,-900.00
6997,-900.00
6998,-920.00
6999,-900.00
7000,-900.00
7001,-900.00
7002,-900.00
7003,-900.00
7004,-900.00
7005,-900.00
7006,-900.00
7007,-900.00
7008,-900.00
7009,-900.00
7010,-900.00
7011,-900.00
7012,-900.00
7013,-900.00
7014,-900.00
7015,-900.00
7016,-900.00
7017,-900.00
7018,-900.00
7019,-900.00
7020,-900.00
7021,-900.00
7022,-900.00
7023,-900.00
7024,-900.00
7025,-900.00
7026,-900.00
7027,-900.00
7028,-900.00
7029,-900.00
7030,-900.00
7031,-900.00
7032,-900.00
7033,-900.00
7034,-900.00
7035,-900.00
7036,-900.00
7037,-900.00
7038,-900.00
7039,-900.00
7040,-900.00
7041,-900.00
7042,-900.00
7043,-900.00
7044,-900.00
7045,-920.00
7046,-900.00
7047,-900.00
7048,-900.00
7049,-900.00
7050,-900.00
7051,-900.00
7052,-900.00
7053,-900.00
7054,-900.00
7055,-900.00
7056,-900.00
7057,-900.00
7058,-900.00
7059,-900.00
7060,-900.00
7061,-900.00
7062,-900.00
7063,-900.00
7064,-920.00
7065,-900.00
7066,-900.00
7067,-900.00
7068,-900.00
7069,-900.00
7070,-900.00
7071,-900.00
7072,-920.00
7073,-900.00
7074,-900.00
7075,-900.00
7076,-900.00
7077,-880.00
7078,-900.00
7079,-900.00
7080,-900.00
7081,-900.00
7082,-900.00
7083,-900.00
7084,-900.00
7085,-900.00
7086,-900.00
7087,-900.00
7088,-900.00
7089,-900.00
7090,-900.00
7091,-900.00
7092,-900.00
7093,-900.00
7094,-900.00
7095,-900.00
7096,-900.00
7097,-900.00
7098,-900.00
7099,-900.00
7100,-900.00
7101,-900.00
7102,-900.00
7103,-900.00
7104,-880.00
7105,-880.00
7106,-900.00
7107,-900.00
7108,-900.00
7109,-920.00
7110,-900.00
7111,-900.00
7112,-900.00
7113,-900.00
7114,-900.00
7115,-900.00
7116,-900.00
7117,-900.00
7118,-900.00
7119,-900.00
7120,-900.00
7121,-900.00
7122,-900.00
7123,-900.00
7124,-900.00
7125,-880.00
7126,-900.00
7127,-900.00
7128,-900.00
7129,-900.00
7130,-900.00
7131,-900.00
7132,-900.00
7133,-900.00
7134,-900.00
7135,-900.00
7136,-900.00
7137,-900.00
7138,-920.00
7139,-900.00
7140,-900.00
7141,-900.00
7142,-900.00
7143,-900.00
7144,-900.00
7145,-900.00
7146,-900.00
7147,-900.00
7148,-900.00
7149,-900.00
7150,-880.00
7151,-880.00
7152,-900.00
7153,-900.00
7154,-900.00
7155,-900.00
7156,-900.00
7157,-900.00
7158,-900.00
7159,-900.00
7160,-900.00
7161,-900.00
7162,-900.00
7163,-900.00
7164,-900.00
7165,-900.00
7166,-880.00
7167,-860.00
7168,-820.00
7169,-760.00
7170,-700.00
7171,-640.00
7172,-580.00
7173,-500.00
7174,-440.00
7175,-380.00
7176,-340.00
7177,-340.00
7178,-300.00
7179,-300.00
7180,-300.00
7181,-300.00
7182,-320.00
7183,-320.00
7184,-320.00
7185,-320.00
7186,-320.00
7187,-300.00
7188,-300.00
7189,-300.00
7190,-300.00
7191,-300.00
7192,-300.00
7193,-320.00
7194,-320.00
7195,-300.00
7196,-300.00
7197,-300.00
7198,-300.00
7199,-300.00
7200,-320.00
7201,-320.00
7202,-320.00
7203,-300.00
7204,-300.00
7205,-300.00
7206,-300.00
7207,-320.00
7208,-300.00
7209,-300.00
7210,-300.00
7211,-280.00
7212,-280.00
7213,-260.00
7214,-280.00
7215,-300.00
7216,-320.00
7217,-340.00
7218,-380.00
7219,-400.00
7220,-420.00
7221,-380.00
7222,-340.00
7223,-260.00
7224,-180.00
7225,-100.00
7226,-60.00
7227,-80.00
7228,-140.00
7229,-240.00
7230,-360.00
7231,-480.00
7232,-560.00
7233,-600.00
7234,-580.00
7235,-500.00
7236,-360.00
7237,-240.00
7238,-120.00
7239,-20.00
7240,0.00
7241,0.00
7242,-80.00
7243,-200.00
7244,-340.00
7245,-480.00
7246,-580.00
7247,-600.00
7248,-600.00
7249,-520.00
7250,-380.00
7251,-260.00
7252,-120.00
7253,-40.00
7254,0.00
7255,-20.00
7256,-100.00
7257,-200.00
7258,-340.00
7259,-460.00
7260,-560.00
7261,-600.00
7262,-580.00
7263,-520.00
7264,-380.00
7265,-280.00
7266,-140.00
7267,-40.00
7268,0.00
7269,0.00
7270,-80.00
7271,-200.00
7272,-340.00
7273,-440.00
7274,-540.00
7275,-600.00
7276,-600.00
7277,-540.00
7278,-420.00
7279,-280.00
7280,-160.00
7281,-40.00
7282,0.00
7283,0.00
7284,-60.00
7285,-180.00
7286,-320.00
7287,-420.00
7288,-540.00
7289,-600.00
7290,-600.00
7291,-540.00
7292,-420.00
7293,-320.00
7294,-180.00
7295,-60.00
7296,0.00
7297,0.00
7298,-60.00
7299,-160.00
7300,-300.00
7301,-420.00
7302,-540.00
7303,-600.00
7304,-600.00
7305,-540.00
7306,-420.00
7307,-300.00
7308,-160.00
7309,-60.00
7310,0.00
7311,0.00
7312,-40.00
7313,-140.00
7314,-280.00
7315,-400.00
7316,-520.00
7317,-600.00
7318,-600.00
7319,-560.00
7320,-440.00
7321,-320.00
7322,-200.00
7323,-80.00
7324,0.00
7325,0.00
7326,-40.00
7327,-140.00
7328,-280.00
7329,-400.00
7330,-520.00
7331,-580.00
7332,-600.00
7333,-560.00
7334,-460.00
7335,-340.00
7336,-200.00
7337,-80.00
7338,0.00
7339,0.00
7340,-40.00
7341,-140.00
7342,-280.00
7343,-400.00
7344,-520.00
7345,-580.00
7346,-600.00
7347,-560.00
7348,-460.00
7349,-340.00
7350,-220.00
7351,-120.00
7352,-60.00
7353,-40.00
7354,-80.00
7355,-160.00
7356,-240.00
7357,-340.00
7358,-400.00
7359,-440.00
7360,-440.00
7361,-420.00
7362,-360.00
7363,-320.00
7364,-280.00
7365,-260.00
7366,-240.00
7367,-260.00
7368,-280.00
7369,-280.00
7370,-300.00
7371,-300.00
7372,-300.00
7373,-300.00
7374,-300.00
7375,-320.00
7376,-300.00
7377,-300.00
7378,-300.00
7379,-300.00
7380,-300.00
7381,-300.00
7382,-300.00
7383,-300.00
7384,-300.00
7385,-300.00
7386,-320.00
7387,-300.00
7388,-300.00
7389,-300.00
7390,-300.00
7391,-300.00
7392,-300.00
7393,-300.00
7394,-320.00
7395,-300.00
7396,-300.00
7397,-300.00
7398,-300.00
7399,-300.00
7400,-300.00
7401,-300.00
7402,-300.00
7403,-300.00
7404,-300.00
7405,-300.00
7406,-300.00
7407,-300.00
7408,-300.00
7409,-300.00
7410,-300.00
7411,-300.00
7412,-300.00
7413,-300.00
7414,-300.00
7415,-300.00
7416,-300.00
7417,-300.00
7418,-300.00
7419,-320.00
7420,-320.00
7421,-300.00
7422,-300.00
7423,-300.00
7424,-300.00
7425,-300.00
7426,-300.00
7427,-300.00
7428,-300.00
7429,-300.00
7430,-300.00
7431,-300.00
7432,-300.00
7433,-300.00
7434,-300.00
7435,-300.00
7436,-300.00
7437,-300.00
7438,-300.00
7439,-300.00
7440,-300.00
7441,-320.00
7442,-320.00
7443,-300.00
7444,-300.00
7445,-300.00
7446,-300.00
7447,-300.00
7448,-300.00
7449,-300.00
7450,-300.00
7451,-300.00
7452,-300.00
7453,-300.00
7454,-300.00
7455,-300.00
7456,-300.00
7457,-300.00
7458,-300.00
7459,-300.00
7460,-300.00
7461,-300.00
7462,-300.00
7463,-300.00
7464,-300.00
7465,-300.00
7466,-300.00
7467,-320.00
7468,-320.00
7469,-300.00
7470,-300.00
7471,-300.00
7472,-280.00
7473,-280.00
7474,-280.00
7475,-300.00
7476,-320.00
7477,-340.00
7478,-380.00
7479,-360.00
7480,-280.00
7481,-100.00
7482,120.00
7483,380.00
7484,620.00
7485,780.00
7486,880.00
7487,860.00
7488,820.00
7489,760.00
7490,700.00
7491,680.00
7492,680.00
7493,700.00
7494,720.00
7495,740.00
7496,740.00
7497,740.00
7498,740.00
7499,720.00
7500,720.00
7501,740.00
7502,740.00
7503,740.00
7504,720.00
7505,720.00
7506,720.00
7507,740.00
7508,720.00
7509,720.00
7510,720.00
7511,740.00
7512,720.00
7513,720.00
7514,740.00
7515,740.00
7516,720.00
7517,720.00
7518,720.00
7519,740.00
7520,740.00
7521,740.00
7522,740.00
7523,720.00
7524,740.00
7525,740.00
7526,740.00
7527,740.00
7528,740.00
7529,720.00
7530,720.00
7531,720.00
7532,720.00
7533,720.00
7534,720.00
7535,720.00
7536,720.00
7537,720.00
7538,720.00
7539,720.00
7540,720.00
7541,740.00
7542,740.00
7543,740.00
7544,740.00
7545,740.00
7546,720.00
7547,720.00
7548,740.00
7549,740.00
7550,740.00
7551,740.00
7552,740.00
7553,740.00
7554,740.00
7555,740.00
7556,740.00
7557,740.00
7558,720.00
7559,720.00
7560,740.00
7561,740.00
7562,740.00
7563,720.00
7564,740.00
7565,740.00
7566,740.00
7567,740.00
7568,740.00
7569,740.00
7570,740.00
7571,740.00
7572,740.00
7573,740.00
7574,740.00
7575,740.00
7576,720.00
7577,740.00
7578,720.00
7579,720.00
7580,720.00
7581,720.00
7582,740.00
7583,740.00
7584,740.00
7585,740.00
7586,720.00
7587,720.00
7588,740.00
7589,740.00
7590,740.00
7591,740.00
7592,740.00
7593,740.00
7594,740.00
7595,740.00
7596,740.00
7597,740.00
7598,740.00
7599,740.00
7600,740.00
7601,740.00
7602,740.00
7603,740.00
7604,720.00
7605,740.00
7606,740.00
7607,720.00
7608,740.00
7609,740.00
7610,720.00
7611,720.00
7612,740.00
7613,740.00
7614,740.00
7615,740.00
7616,740.00
7617,740.00
7618,740.00
7619,740.00
7620,740.00
7621,740.00
7622,740.00
7623,740.00
7624,740.00
7625,740.00
7626,720.00
7627,720.00
7628,720.00
7629,720.00
7630,720.00
7631,740.00
7632,740.00
7633,740.00
7634,720.00
7635,740.00
7636,740.00
7637,740.00
7638,740.00
7639,740.00
7640,740.00
7641,740.00
7642,740.00
7643,740.00
7644,740.00
7645,720.00
7646,740.00
7647,740.00
7648,740.00
7649,740.00
7650,740.00
7651,720.00
7652,720.00
7653,740.00
7654,720.00
7655,740.00
7656,720.00
7657,740.00
7658,740.00
7659,740.00
7660,740.00
7661,740.00
7662,740.00
7663,740.00
7664,740.00
7665,740.00
7666,740.00
7667,740.00
7668,740.00
7669,740.00
7670,740.00
7671,740.00
7672,720.00
7673,720.00
7674,720.00
7675,740.00
7676,720.00
7677,720.00
7678,740.00
7679,720.00
7680,720.00
7681,740.00
7682,740.00
7683,740.00
7684,720.00
7685,740.00
7686,740.00
7687,740.00
7688,740.00
7689,740.00
7690,740.00
7691,740.00
7692,740.00
7693,740.00
7694,740.00
7695,740.00
7696,720.00
7697,720.00
7698,720.00
7699,740.00
7700,740.00
7701,740.00
7702,720.00
7703,720.00
7704,740.00
7705,740.00
7706,740.00
7707,740.00
7708,740.00
7709,740.00
7710,740.00
7711,740.00
7712,740.00
7713,740.00
7714,740.00
7715,740.00
7716,740.00
7717,740.00
7718,740.00
7719,720.00
7720,720.00
7721,740.00
7722,740.00
7723,740.00
7724,740.00
7725,720.00
7726,720.00
7727,740.00
7728,740.00
7729,740.00
7730,740.00
7731,740.00
7732,740.00
7733,740.00
7734,740.00
7735,740.00
7736,740.00
7737,740.00
7738,740.00
7739,720.00
7740,740.00
7741,740.00
7742,740.00
7743,740.00
7744,720.00
7745,740.00
7746,740.00
7747,740.00
7748,740.00
7749,740.00
7750,720.00
7751,740.00
7752,740.00
7753,740.00
7754,740.00
7755,740.00
7756,740.00
7757,740.00
7758,740.00
7759,740.00
7760,740.00
7761,740.00
7762,740.00
7763,740.00
7764,740.00
7765,740.00
7766,740.00
7767,720.00
7768,740.00
7769,740.00
7770,740.00
7771,740.00
7772,740.00
7773,740.00
7774,740.00
7775,740.00
7776,740.00
7777,740.00
7778,720.00
7779,740.00
7780,740.00
7781,740.00
7782,740.00
7783,740.00
7784,740.00
7785,740.00
7786,740.00
7787,740.00
7788,740.00
7789,720.00
7790,720.00
7791,740.00
7792,740.00
7793,740.00
7794,720.00
7795,740.00
7796,740.00
7797,740.00
7798,740.00
7799,740.00
7800,740.00
7801,740.00
7802,740.00
7803,740.00
7804,740.00
7805,740.00
7806,740.00
7807,740.00
7808,740.00
7809,740.00
7810,740.00
7811,740.00
7812,740.00
7813,740.00
7814,740.00
7815,740.00
7816,740.00
7817,740.00
7818,740.00
7819,740.00
7820,740.00
7821,740.00
7822,740.00
7823,740.00
7824,740.00
7825,740.00
7826,740.00
7827,740.00
7828,740.00
7829,740.00
7830,740.00
7831,740.00
7832,740.00
7833,740.00
7834,720.00
7835,720.00
7836,720.00
7837,740.00
7838,740.00
7839,740.00
7840,740.00
7841,740.00
7842,740.00
7843,740.00
7844,740.00
7845,740.00
7846,740.00
7847,740.00
7848,740.00
7849,740.00
7850,740.00
7851,740.00
7852,740.00
7853,740.00
7854,740.00
7855,740.00
7856,740.00
7857,740.00
7858,740.00
7859,740.00
7860,740.00
7861,740.00
7862,740.00
7863,740.00
7864,740.00
7865,740.00
7866,740.00
7867,740.00
7868,720.00
7869,740.00
7870,740.00
7871,740.00
7872,740.00
7873,740.00
7874,740.00
7875,740.00
7876,740.00
7877,740.00
7878,740.00
7879,740.00
7880,740.00
7881,740.00
7882,740.00
7883,740.00
7884,740.00
7885,740.00
7886,720.00
7887,720.00
7888,720.00
7889,740.00
7890,760.00
7891,740.00
7892,720.00
7893,680.00
7894,640.00
7895,580.00
7896,540.00
7897,560.00
7898,640.00
7899,740.00
7900,880.00
7901,980.00
7902,1000.00
7903,980.00
7904,880.00
7905,700.00
7906,500.00
7907,320.00
7908,180.00
7909,140.00
7910,200.00
7911,320.00
7912,520.00
7913,700.00
7914,920.00
7915,1040.00
7916,1080.00
7917,1040.00
7918,940.00
7919,740.00
7920,540.00
7921,340.00
7922,200.00
7923,160.00
7924,200.00
7925,320.00
7926,500.00
7927,700.00
7928,920.00
7929,1020.00
7930,1080.00
7931,1040.00
7932,940.00
7933,740.00
7934,560.00
7935,340.00
7936,220.00
7937,140.00
7938,180.00
7939,300.00
7940,480.00
7941,680.00
7942,900.00
7943,1020.00
7944,1100.00
7945,1060.00
7946,960.00
7947,780.00
7948,560.00
7949,360.00
7950,220.00
7951,160.00
7952,180.00
7953,300.00
7954,460.00
7955,660.00
7956,860.00
7957,1000.00
7958,1080.00
7959,1060.00
7960,980.00
7961,800.00
7962,600.00
7963,380.00
7964,240.00
7965,160.00
7966,160.00
7967,280.00
7968,440.00
7969,660.00
7970,860.00
7971,1000.00
7972,1100.00
7973,1060.00
7974,980.00
7975,800.00
7976,600.00
7977,400.00
7978,240.00
7979,160.00
7980,160.00
7981,260.00
7982,420.00
7983,620.00
7984,740.00
7985,740.00
7986,740.00
7987,740.00
7988,740.00
7989,740.00
7990,740.00
7991,720.00
7992,740.00
7993,720.00
7994,740.00
7995,740.00
7996,740.00
7997,740.00
7998,740.00
7999,740.00
